word,colour,corrAns,congruent,trials.thisRepN,trials.thisTrialN,trials.thisN,trials.thisIndex,StroopTestLoop.thisRepN,StroopTestLoop.thisTrialN,StroopTestLoop.thisN,StroopTestLoop.thisIndex,thisRow.t,notes,instruction.started,instrText.started,key_resp.started,LightSensorTrggr_5.started,LightSensorTrggr_5.stopped,instruction.stopped,Trial.started,TrialsInstruction.started,TrialsTarget.started,TrialsResponse.started,LightSensorTrggr_4.started,skip_button.started,LightSensorTrggr_4.stopped,Trial.stopped,TrialsResponse.keys,TrialsResponse.corr,TrialsResponse.rt,TrialsResponse.duration,skip_button.keys,feedbackPos.started,textFeedbackPos.started,textFeedbackPos.stopped,feedbackPos.stopped,feedbackNeg.started,feedbackNeg.stopped,textFeedbackNeg.started,textFeedbackNeg.stopped,begin_experiment.started,beginText.started,LightSensorTrggr_6.started,LightSensorTrggr_6.stopped,begin_experiment.stopped,Rest_Time.started,text.started,LightSensorTrggr_2.started,skip_button_2.started,LightSensorTrggr_2.stopped,skip_button_2.stopped,Rest_Time.stopped,skip_button_2.keys,StroopTest.started,TestInstruction.started,target.started,response.started,LightSensorTrggr.started,LightSensorTrggr.stopped,StroopTest.stopped,response.keys,response.corr,response.rt,response.duration,TestFeedbackPos.started,testFeedbackPos.started,testFeedbackPos.stopped,TestFeedbackPos.stopped,TestFeedbackNeg.started,TestFeedbackNeg.stopped,testFeedbackNeg.started,testFeedbackNeg.stopped,finished.started,farewelText.started,LightSensorTrggr_3.started,key_resp_3.started,LightSensorTrggr_3.stopped,finished.stopped,key_resp_3.keys,participant,session,date,expName,psychopyVersion,frameRate,expStart,
xxxxx,blue,right,,0,0,0,2,,,,,10.028396699999576,,0.0035792999988188967,0.019502899998769863,0.019502899998769863,0.019502899998769863,0.11963420000029146,10.011810199999672,10.015569299999697,10.028396699999576,10.028396699999576,10.028396699999576,10.028396699999576,10.028396699999576,10.128554599999916,12.898297399999137,right,1,2.860284699998374,None,None,12.898807399998987,12.914354700000331,13.414825599998949,13.398273999999219,13.398280699999304,13.398291499999686,,,,,,,,,,,,,,,,,,,,,,,,,,,,,,,,,,,,,,,,,,B68,001,2023-10-19_10h08.29.084,stroopv1,2023.2.3,59.92297500783463,2023-10-19 10h08.34.188420 +0900,
xxxxx,red,left,,0,1,1,0,,,,,13.414825599998949,,,,,,,,13.398429099999703,13.414825599998949,13.414825599998949,13.414825599998949,13.414825599998949,13.414825599998949,13.514906799999153,15.45034940000005,left,1,2.033336100001179,None,None,15.450520000000324,15.466649599999073,15.967149399999471,15.950587899998936,15.950594199999614,15.950603899998896,,,,,,,,,,,,,,,,,,,,,,,,,,,,,,,,,,,,,,,,,,B68,001,2023-10-19_10h08.29.084,stroopv1,2023.2.3,59.92297500783463,2023-10-19 10h08.34.188420 +0900,
xxxxx,green,down,,0,2,2,1,,,,,15.967149399999471,,,,,,,,15.950744899999336,15.967149399999471,15.967149399999471,15.967149399999471,15.967149399999471,15.967149399999471,16.06719410000005,17.569115500000407,right,0,1.5930210999995325,None,None,17.569309200000134,,,17.569327799999883,17.56933199999912,18.06919679999919,17.585183999999572,18.085661600000094,,,,,,,,,,,,,,,,,,,,,,,,,,,,,,,,,,,,,,,,B68,001,2023-10-19_10h08.29.084,stroopv1,2023.2.3,59.92297500783463,2023-10-19 10h08.34.188420 +0900,
xxxxx,blue,right,,1,0,3,2,,,,,18.085661600000094,,,,,,,,18.069431099998837,18.085661600000094,18.085661600000094,18.085661600000094,18.085661600000094,18.085661600000094,18.185755999998946,19.73790360000021,right,1,1.6512392999993608,None,None,19.738083799999004,19.754078899999513,20.25426719999996,20.237776099998882,20.237788700000237,20.23781190000045,,,,,,,,,,,,,,,,,,,,,,,,,,,,,,,,,,,,,,,,,,B68,001,2023-10-19_10h08.29.084,stroopv1,2023.2.3,59.92297500783463,2023-10-19 10h08.34.188420 +0900,
xxxxx,red,left,,1,1,4,0,,,,,20.25426719999996,,,,,,,,20.2379820999995,20.25426719999996,20.25426719999996,20.25426719999996,20.25426719999996,20.25426719999996,20.354357700000037,21.10558949999904,left,1,0.842144999998709,None,None,21.10578170000008,21.121737699999358,21.622182899998734,21.60572929999944,21.605734900000243,21.605744499998764,,,,,,,,,,,,,,,,,,,,,,,,,,,,,,,,,,,,,,,,,,B68,001,2023-10-19_10h08.29.084,stroopv1,2023.2.3,59.92297500783463,2023-10-19 10h08.34.188420 +0900,
xxxxx,green,down,,1,2,5,1,,,,,21.622182899998734,,,,,,,,21.605876499999795,21.622182899998734,21.622182899998734,21.622182899998734,21.622182899998734,21.622182899998734,21.722256600000037,22.856929600000512,down,1,1.218418999998903,None,None,22.85709069999939,22.87328069999967,23.37375500000053,23.357249499998943,23.357262300000002,23.357284300000174,,,,,,,,,,,,,,,,,,,,,,,,,,,,,,,,,,,,,,,,,,B68,001,2023-10-19_10h08.29.084,stroopv1,2023.2.3,59.92297500783463,2023-10-19 10h08.34.188420 +0900,
,,,,,,,,,,,,,,,,,,,,,,,,,,,,,,,,,,,,,,,,,23.35732680000001,23.37375500000053,23.37375500000053,23.47401340000033,28.361554899998737,28.361561100000472,28.3782056,28.3782056,28.3782056,28.478294200000164,31.38092349999897,328.36324869999953,None,,,,,,,,,,,,,,,,,,,,,,,,,,,B68,001,2023-10-19_10h08.29.084,stroopv1,2023.2.3,59.92297500783463,2023-10-19 10h08.34.188420 +0900,
green,green,down,1,,,,,0,0,0,4,328.3798920999998,,,,,,,,,,,,,,,,,,,,,,,,,,,,,,,,,,,,,,,,,,328.37074419999954,328.3798920999998,328.3798920999998,328.3798920999998,328.3798920999998,328.47993730000053,331.34965399999965,down,1,2.956962999998723,None,331.35538110000016,331.3658598000002,331.8662841999994,331.84985190000043,331.8498579999996,331.8498688999989,,,,,,,,,,B68,001,2023-10-19_10h08.29.084,stroopv1,2023.2.3,59.92297500783463,2023-10-19 10h08.34.188420 +0900,
blue,red,left,0,,,,,0,1,1,6,331.8662841999994,,,,,,,,,,,,,,,,,,,,,,,,,,,,,,,,,,,,,,,,,,331.8511488999993,331.8662841999994,331.8662841999994,331.8662841999994,331.8662841999994,331.9663892999997,333.71842169999945,left,1,1.8383827999987261,None,333.7211437999995,333.7346699999998,334.2351051000005,334.21863159999884,334.218644999999,334.2186674000004,,,,,,,,,,B68,001,2023-10-19_10h08.29.084,stroopv1,2023.2.3,59.92297500783463,2023-10-19 10h08.34.188420 +0900,
blue,green,down,0,,,,,0,2,2,7,334.2351051000005,,,,,,,,,,,,,,,,,,,,,,,,,,,,,,,,,,,,,,,,,,334.22012619999987,334.2351051000005,334.2351051000005,334.2351051000005,334.2351051000005,334.33520849999877,335.73687339999924,down,1,1.4858280999997078,None,335.7394497999994,335.75312080000003,336.2535790999991,336.23711509999885,336.2371213999995,336.2371321999999,,,,,,,,,,B68,001,2023-10-19_10h08.29.084,stroopv1,2023.2.3,59.92297500783463,2023-10-19 10h08.34.188420 +0900,
green,red,left,0,,,,,0,3,3,3,336.2535790999991,,,,,,,,,,,,,,,,,,,,,,,,,,,,,,,,,,,,,,,,,,336.23841829999947,336.2535790999991,336.2535790999991,336.2535790999991,336.2535790999991,336.3537204999993,337.62178529999983,left,1,1.3549458000015875,None,337.62426889999915,337.63813970000047,338.1386975000005,338.1222151000002,338.1222216999995,338.12223189999895,,,,,,,,,,B68,001,2023-10-19_10h08.29.084,stroopv1,2023.2.3,59.92297500783463,2023-10-19 10h08.34.188420 +0900,
red,red,left,1,,,,,0,4,4,0,338.1386975000005,,,,,,,,,,,,,,,,,,,,,,,,,,,,,,,,,,,,,,,,,,338.1235323000001,338.1386975000005,338.1386975000005,338.1386975000005,338.1386975000005,338.23922349999884,339.59019499999886,left,1,1.4382449000004272,None,339.59271269999954,339.6065620999998,340.10701169999993,340.0905287000005,340.09053549999953,340.09054599999945,,,,,,,,,,B68,001,2023-10-19_10h08.29.084,stroopv1,2023.2.3,59.92297500783463,2023-10-19 10h08.34.188420 +0900,
green,blue,right,0,,,,,0,5,5,5,340.10701169999993,,,,,,,,,,,,,,,,,,,,,,,,,,,,,,,,,,,,,,,,,,340.0918330000004,340.10701169999993,340.10701169999993,340.10701169999993,340.10701169999993,340.2071268999989,341.55867450000005,right,1,1.4373495999989245,None,341.56119409999883,341.57498979999946,342.0754632999997,342.0589519999994,342.0589586999995,342.0589689999997,,,,,,,,,,B68,001,2023-10-19_10h08.29.084,stroopv1,2023.2.3,59.92297500783463,2023-10-19 10h08.34.188420 +0900,
blue,blue,right,1,,,,,0,6,6,8,342.0754632999997,,,,,,,,,,,,,,,,,,,,,,,,,,,,,,,,,,,,,,,,,,342.06032249999953,342.0754632999997,342.0754632999997,342.0754632999997,342.0754632999997,342.17551999999887,343.5272212,right,1,1.437046900000496,None,343.5299259000003,343.5433800999999,344.04385960000036,344.027424599999,344.02743759999976,344.0274606999992,,,,,,,,,,B68,001,2023-10-19_10h08.29.084,stroopv1,2023.2.3,59.92297500783463,2023-10-19 10h08.34.188420 +0900,
red,green,down,0,,,,,0,7,7,1,344.04385960000036,,,,,,,,,,,,,,,,,,,,,,,,,,,,,,,,,,,,,,,,,,344.0289641999989,344.04385960000036,344.04385960000036,344.04385960000036,344.04385960000036,344.14398079999955,345.47882480000044,down,1,1.4211618999997881,None,345.48136390000036,345.4951901000004,345.99560349999956,345.9792247000005,345.9792331999997,345.97924500000045,,,,,,,,,,B68,001,2023-10-19_10h08.29.084,stroopv1,2023.2.3,59.92297500783463,2023-10-19 10h08.34.188420 +0900,
red,blue,right,0,,,,,0,8,8,2,345.99560349999956,,,,,,,,,,,,,,,,,,,,,,,,,,,,,,,,,,,,,,,,,,345.9805648999991,345.99560349999956,345.99560349999956,345.99560349999956,345.99560349999956,346.0957054999999,347.0302236999996,right,1,1.0211666999985027,None,347.0327137999993,347.0465544999988,347.54703229999905,347.5305047999991,347.53051120000055,347.53052319999915,,,,,,,,,,B68,001,2023-10-19_10h08.29.084,stroopv1,2023.2.3,59.92297500783463,2023-10-19 10h08.34.188420 +0900,
blue,red,left,0,,,,,1,0,9,6,347.54703229999905,,,,,,,,,,,,,,,,,,,,,,,,,,,,,,,,,,,,,,,,,,347.53185479999956,347.54703229999905,347.54703229999905,347.54703229999905,347.54703229999905,347.64712059999874,348.7819652999988,left,1,1.2298931000004814,None,348.7850469999994,348.798076699999,349.29859079999915,349.28213349999896,349.2821464999997,349.2821748999995,,,,,,,,,,B68,001,2023-10-19_10h08.29.084,stroopv1,2023.2.3,59.92297500783463,2023-10-19 10h08.34.188420 +0900,
blue,blue,right,1,,,,,1,1,10,8,349.29859079999915,,,,,,,,,,,,,,,,,,,,,,,,,,,,,,,,,,,,,,,,,,349.2834975000005,349.29859079999915,349.29859079999915,349.29859079999915,349.29859079999915,349.3986776999991,350.7003231999988,right,1,1.3978852000000188,None,350.7029523000001,350.7165335999998,351.2169730000005,351.2005307999989,351.2005434999992,351.20056699999986,,,,,,,,,,B68,001,2023-10-19_10h08.29.084,stroopv1,2023.2.3,59.92297500783463,2023-10-19 10h08.34.188420 +0900,
green,red,left,0,,,,,1,2,11,3,351.2169730000005,,,,,,,,,,,,,,,,,,,,,,,,,,,,,,,,,,,,,,,,,,351.2020405000003,351.2169730000005,351.2169730000005,351.2169730000005,351.2169730000005,351.31706549999944,352.3517775,left,1,1.128033900000446,None,352.35438989999966,352.3679422999994,352.86846089999926,352.85190499999953,352.8519113000002,352.85192189999907,,,,,,,,,,B68,001,2023-10-19_10h08.29.084,stroopv1,2023.2.3,59.92297500783463,2023-10-19 10h08.34.188420 +0900,
red,blue,right,0,,,,,1,3,12,2,352.86846089999926,,,,,,,,,,,,,,,,,,,,,,,,,,,,,,,,,,,,,,,,,,352.8531934999992,352.86846089999926,352.86846089999926,352.86846089999926,352.86846089999926,352.96857869999985,354.2200015999988,right,1,1.3482355999985884,None,354.22254339999927,354.2362868,354.7367916000003,354.72027030000027,354.7202765999991,354.7202865999989,,,,,,,,,,B68,001,2023-10-19_10h08.29.084,stroopv1,2023.2.3,59.92297500783463,2023-10-19 10h08.34.188420 +0900,
red,green,down,0,,,,,1,4,13,1,354.7367916000003,,,,,,,,,,,,,,,,,,,,,,,,,,,,,,,,,,,,,,,,,,354.72156650000034,354.7367916000003,354.7367916000003,354.7367916000003,354.7367916000003,354.83688579999944,356.68894679999903,down,1,1.9437262999999803,None,356.6914536000004,356.7051797999993,357.20615689999977,357.1897506999994,357.18976459999976,357.1897874999995,,,,,,,,,,B68,001,2023-10-19_10h08.29.084,stroopv1,2023.2.3,59.92297500783463,2023-10-19 10h08.34.188420 +0900,
green,green,down,1,,,,,1,5,14,4,357.20615689999977,,,,,,,,,,,,,,,,,,,,,,,,,,,,,,,,,,,,,,,,,,357.1913371999999,357.20615689999977,357.20615689999977,357.20615689999977,357.20615689999977,357.30620689999887,358.77439289999893,down,1,1.5547903000006045,None,358.7772047999988,358.7904140999999,359.2908932999999,359.2743929999997,359.2744055999992,359.27442809999957,,,,,,,,,,B68,001,2023-10-19_10h08.29.084,stroopv1,2023.2.3,59.92297500783463,2023-10-19 10h08.34.188420 +0900,
green,blue,right,0,,,,,1,6,15,5,359.2908932999999,,,,,,,,,,,,,,,,,,,,,,,,,,,,,,,,,,,,,,,,,,359.2761412,359.2908932999999,359.2908932999999,359.2908932999999,359.2908932999999,359.39091480000025,360.6759003999996,right,1,1.3736934999997175,None,360.67879209999955,360.69209880000017,361.19256080000014,361.17605879999974,361.17606559999876,361.1760756999993,,,,,,,,,,B68,001,2023-10-19_10h08.29.084,stroopv1,2023.2.3,59.92297500783463,2023-10-19 10h08.34.188420 +0900,
red,red,left,1,,,,,1,7,16,0,361.19256080000014,,,,,,,,,,,,,,,,,,,,,,,,,,,,,,,,,,,,,,,,,,361.1773592999998,361.19256080000014,361.19256080000014,361.19256080000014,361.19256080000014,361.29264409999996,362.0770974999996,left,1,0.8802742000007129,None,362.07965349999904,362.0933019999993,362.5937923999991,362.5773043999998,362.57731129999956,362.57732120000037,,,,,,,,,,B68,001,2023-10-19_10h08.29.084,stroopv1,2023.2.3,59.92297500783463,2023-10-19 10h08.34.188420 +0900,
blue,green,down,0,,,,,1,8,17,7,362.5937923999991,,,,,,,,,,,,,,,,,,,,,,,,,,,,,,,,,,,,,,,,,,362.5786146999999,362.5937923999991,362.5937923999991,362.5937923999991,362.5937923999991,362.6939019000001,365.61362609999924,down,1,3.0149333999997907,None,365.61615859999984,365.6298358999993,366.1303047000001,366.11384589999943,366.1138582000003,366.11387939999986,,,,,,,,,,B68,001,2023-10-19_10h08.29.084,stroopv1,2023.2.3,59.92297500783463,2023-10-19 10h08.34.188420 +0900,
red,blue,right,0,,,,,2,0,18,2,366.1303047000001,,,,,,,,,,,,,,,,,,,,,,,,,,,,,,,,,,,,,,,,,,366.11525690000053,366.1303047000001,366.1303047000001,366.1303047000001,366.1303047000001,366.2303824999999,367.6653497999996,right,1,1.5261823999990156,None,367.6678856999988,367.6816708999995,368.1821514000003,368.16568879999977,368.16570219999994,368.16574109999965,,,,,,,,,,B68,001,2023-10-19_10h08.29.084,stroopv1,2023.2.3,59.92297500783463,2023-10-19 10h08.34.188420 +0900,
red,green,down,0,,,,,2,1,19,1,368.1821514000003,,,,,,,,,,,,,,,,,,,,,,,,,,,,,,,,,,,,,,,,,,368.1670202000005,368.1821514000003,368.1821514000003,368.1821514000003,368.1821514000003,368.2822326000005,370.6680156000002,down,1,2.4822855000002164,None,370.670564,370.68437950000043,371.1848283999989,371.16827620000004,371.1682827000004,371.16829289999987,,,,,,,,,,B68,001,2023-10-19_10h08.29.084,stroopv1,2023.2.3,59.92297500783463,2023-10-19 10h08.34.188420 +0900,
green,green,down,1,,,,,2,2,20,4,371.1848283999989,,,,,,,,,,,,,,,,,,,,,,,,,,,,,,,,,,,,,,,,,,371.16957360000015,371.1848283999989,371.1848283999989,371.1848283999989,371.1848283999989,371.2849215999995,372.90332209999906,down,1,1.7042299999993702,None,372.9058041999997,372.9196768999991,373.42015939999874,373.40371679999953,373.40373,373.4037525999993,,,,,,,,,,B68,001,2023-10-19_10h08.29.084,stroopv1,2023.2.3,59.92297500783463,2023-10-19 10h08.34.188420 +0900,
green,blue,right,0,,,,,2,3,21,5,373.42015939999874,,,,,,,,,,,,,,,,,,,,,,,,,,,,,,,,,,,,,,,,,,373.4053769000002,373.42015939999874,373.42015939999874,373.42015939999874,373.42015939999874,373.5202599000004,374.8886158000005,right,1,1.4522388000004867,None,374.89124210000045,374.9048213999995,375.40538059999926,375.38881760000004,375.38882999999987,375.38885259999915,,,,,,,,,,B68,001,2023-10-19_10h08.29.084,stroopv1,2023.2.3,59.92297500783463,2023-10-19 10h08.34.188420 +0900,
red,red,left,1,,,,,2,4,22,0,375.40538059999926,,,,,,,,,,,,,,,,,,,,,,,,,,,,,,,,,,,,,,,,,,375.39060919999974,375.40538059999926,375.40538059999926,375.40538059999926,375.40538059999926,375.5053319999988,376.57350009999936,left,1,1.163333300000886,None,376.576181299999,376.58966409999994,377.0901073999994,377.0738404999993,377.0738529999999,377.0738756999999,,,,,,,,,,B68,001,2023-10-19_10h08.29.084,stroopv1,2023.2.3,59.92297500783463,2023-10-19 10h08.34.188420 +0900,
blue,blue,right,1,,,,,2,5,23,8,377.0901073999994,,,,,,,,,,,,,,,,,,,,,,,,,,,,,,,,,,,,,,,,,,377.0753477999988,377.0901073999994,377.0901073999994,377.0901073999994,377.0901073999994,377.19017559999884,379.9429390999994,right,1,2.8391064000006736,None,379.9453909999993,379.95934469999884,380.4598150999991,380.4432581000001,380.4432648999991,380.4432753000001,,,,,,,,,,B68,001,2023-10-19_10h08.29.084,stroopv1,2023.2.3,59.92297500783463,2023-10-19 10h08.34.188420 +0900,
blue,green,down,0,,,,,2,6,24,7,380.4598150999991,,,,,,,,,,,,,,,,,,,,,,,,,,,,,,,,,,,,,,,,,,380.44456009999885,380.4598150999991,380.4598150999991,380.4598150999991,380.4598150999991,380.55988269999943,381.7280652999998,down,1,1.261406800000259,None,381.7306988,381.74427209999885,382.24473169999874,382.2282555999991,382.2282682999994,382.2282911000002,,,,,,,,,,B68,001,2023-10-19_10h08.29.084,stroopv1,2023.2.3,59.92297500783463,2023-10-19 10h08.34.188420 +0900,
blue,red,left,0,,,,,2,7,25,6,382.24473169999874,,,,,,,,,,,,,,,,,,,,,,,,,,,,,,,,,,,,,,,,,,382.22972859999936,382.24473169999874,382.24473169999874,382.24473169999874,382.24473169999874,382.34480950000034,383.5463144999994,left,1,1.3003929000005883,None,383.5492895999996,383.5625368000001,384.06301429999985,384.0465562999998,384.0465690000001,384.04659170000014,,,,,,,,,,B68,001,2023-10-19_10h08.29.084,stroopv1,2023.2.3,59.92297500783463,2023-10-19 10h08.34.188420 +0900,
green,red,left,0,,,,,2,8,26,3,384.06301429999985,,,,,,,,,,,,,,,,,,,,,,,,,,,,,,,,,,,,,,,,,,384.04840870000044,384.06301429999985,384.06301429999985,384.06301429999985,384.06301429999985,384.1630723999988,386.0651168000004,left,1,1.9947310999996262,None,386.06777130000046,386.0814754999992,386.58190139999897,386.56541599999946,386.56542269999954,386.565432899999,,,,,,,,,,B68,001,2023-10-19_10h08.29.084,stroopv1,2023.2.3,59.92297500783463,2023-10-19 10h08.34.188420 +0900,
green,red,left,0,,,,,3,0,27,3,386.58190139999897,,,,,,,,,,,,,,,,,,,,,,,,,,,,,,,,,,,,,,,,,,386.5667369999992,386.58190139999897,386.58190139999897,386.58190139999897,386.58190139999897,386.68226719999984,387.36622329999955,left,1,0.770560299999488,None,387.3687381999989,387.38261599999896,387.88308920000054,387.8665800999988,387.8665865999992,387.8665965,,,,,,,,,,B68,001,2023-10-19_10h08.29.084,stroopv1,2023.2.3,59.92297500783463,2023-10-19 10h08.34.188420 +0900,
green,blue,right,0,,,,,3,1,28,5,387.88308920000054,,,,,,,,,,,,,,,,,,,,,,,,,,,,,,,,,,,,,,,,,,387.86788069999966,387.88308920000054,387.88308920000054,387.88308920000054,387.88308920000054,387.98315399999956,389.38476900000023,right,1,1.4856718000010005,None,389.38726289999977,389.4010903999988,389.9015639999998,389.88520190000054,389.885214599999,389.8852361999998,,,,,,,,,,B68,001,2023-10-19_10h08.29.084,stroopv1,2023.2.3,59.92297500783463,2023-10-19 10h08.34.188420 +0900,
red,blue,right,0,,,,,3,2,29,2,389.9015639999998,,,,,,,,,,,,,,,,,,,,,,,,,,,,,,,,,,,,,,,,,,389.88698079999995,389.9015639999998,389.9015639999998,389.9015639999998,389.9015639999998,390.0016257999996,393.0048029999998,right,1,3.0992319000015414,None,393.00734720000037,393.02102769999874,393.5626352999989,393.5052058000001,393.50521879999906,393.50524099999893,,,,,,,,,,B68,001,2023-10-19_10h08.29.084,stroopv1,2023.2.3,59.92297500783463,2023-10-19 10h08.34.188420 +0900,
blue,green,down,0,,,,,3,3,30,7,393.5626352999989,,,,,,,,,,,,,,,,,,,,,,,,,,,,,,,,,,,,,,,,,,393.50701169999957,393.5626352999989,393.5626352999989,393.5626352999989,393.5626352999989,393.66267960000005,395.1978684000005,down,1,1.6298289000005752,None,395.2004060999989,395.21407349999936,395.7144866999988,395.6980119999989,395.6980187999998,395.6980291999989,,,,,,,,,,B68,001,2023-10-19_10h08.29.084,stroopv1,2023.2.3,59.92297500783463,2023-10-19 10h08.34.188420 +0900,
green,green,down,1,,,,,3,4,31,4,395.7144866999988,,,,,,,,,,,,,,,,,,,,,,,,,,,,,,,,,,,,,,,,,,395.6993617999997,395.7144866999988,395.7144866999988,395.7144866999988,395.7144866999988,395.81461259999924,396.44915599999877,down,1,0.7258791000003839,None,396.45175949999975,396.46517479999966,396.96564539999963,396.9492215999999,396.9492276000001,396.9492372000004,,,,,,,,,,B68,001,2023-10-19_10h08.29.084,stroopv1,2023.2.3,59.92297500783463,2023-10-19 10h08.34.188420 +0900,
red,red,left,1,,,,,3,5,32,0,396.96564539999963,,,,,,,,,,,,,,,,,,,,,,,,,,,,,,,,,,,,,,,,,,396.9505845999993,396.96564539999963,396.96564539999963,396.96564539999963,396.96564539999963,397.06573019999996,397.8167245000004,left,1,0.8348793999994086,None,397.8192600000002,397.83304959999987,398.33349180000005,398.3170683999997,398.3170818999988,398.3171046999996,,,,,,,,,,B68,001,2023-10-19_10h08.29.084,stroopv1,2023.2.3,59.92297500783463,2023-10-19 10h08.34.188420 +0900,
red,green,down,0,,,,,3,6,33,1,398.33349180000005,,,,,,,,,,,,,,,,,,,,,,,,,,,,,,,,,,,,,,,,,,398.31884589999936,398.33349180000005,398.33349180000005,398.33349180000005,398.33349180000005,398.4336153000004,399.8353566000005,down,1,1.499222500000542,None,399.8381105999997,399.8515170999999,400.35196559999895,400.3355453000004,400.3355580999996,400.33558129999983,,,,,,,,,,B68,001,2023-10-19_10h08.29.084,stroopv1,2023.2.3,59.92297500783463,2023-10-19 10h08.34.188420 +0900,
blue,blue,right,1,,,,,3,7,34,8,400.35196559999895,,,,,,,,,,,,,,,,,,,,,,,,,,,,,,,,,,,,,,,,,,400.3371901999999,400.35196559999895,400.35196559999895,400.35196559999895,400.35196559999895,400.4520518999998,401.4034095999996,right,1,1.0492494999998598,None,401.4064175000003,401.4195930999995,401.9200689999998,401.9035709,401.90357980000044,401.90359050000006,,,,,,,,,,B68,001,2023-10-19_10h08.29.084,stroopv1,2023.2.3,59.92297500783463,2023-10-19 10h08.34.188420 +0900,
blue,red,left,0,,,,,3,8,35,6,401.9200689999998,,,,,,,,,,,,,,,,,,,,,,,,,,,,,,,,,,,,,,,,,,401.90488079999886,401.9200689999998,401.9200689999998,401.9200689999998,401.9200689999998,402.0201562000002,403.10481509999954,left,1,1.1765061999994941,None,403.10756670000046,403.1210828000003,403.62153919999946,403.6050955999999,403.6051086999996,403.6051312999989,,,,,,,,,,B68,001,2023-10-19_10h08.29.084,stroopv1,2023.2.3,59.92297500783463,2023-10-19 10h08.34.188420 +0900,
green,green,down,1,,,,,4,0,36,4,403.62153919999946,,,,,,,,,,,,,,,,,,,,,,,,,,,,,,,,,,,,,,,,,,403.6068646999993,403.62153919999946,403.62153919999946,403.62153919999946,403.62153919999946,403.72164969999903,405.7738454999999,down,1,2.1476689999999508,None,405.77638920000027,405.79015459999937,406.290624199999,406.27412299999924,406.27412939999886,406.27413979999983,,,,,,,,,,B68,001,2023-10-19_10h08.29.084,stroopv1,2023.2.3,59.92297500783463,2023-10-19 10h08.34.188420 +0900,
blue,blue,right,1,,,,,4,1,37,8,406.290624199999,,,,,,,,,,,,,,,,,,,,,,,,,,,,,,,,,,,,,,,,,,406.27548690000003,406.290624199999,406.290624199999,406.290624199999,406.290624199999,406.3907024,407.35857249999935,right,1,1.0623419000003196,None,407.3611297999996,407.37491319999936,407.8753961000002,407.8588708999996,407.8588770999995,407.85888689999956,,,,,,,,,,B68,001,2023-10-19_10h08.29.084,stroopv1,2023.2.3,59.92297500783463,2023-10-19 10h08.34.188420 +0900,
red,blue,right,0,,,,,4,2,38,2,407.8753961000002,,,,,,,,,,,,,,,,,,,,,,,,,,,,,,,,,,,,,,,,,,407.8601767,407.8753961000002,407.8753961000002,407.8753961000002,407.8753961000002,407.9754379999995,409.3603361000005,right,1,1.4779366999991908,None,409.3628709000004,409.37671039999987,409.8771522999996,409.86065769999914,409.8606638000001,409.86067399999956,,,,,,,,,,B68,001,2023-10-19_10h08.29.084,stroopv1,2023.2.3,59.92297500783463,2023-10-19 10h08.34.188420 +0900,
red,green,down,0,,,,,4,3,39,1,409.8771522999996,,,,,,,,,,,,,,,,,,,,,,,,,,,,,,,,,,,,,,,,,,409.86196910000035,409.8771522999996,409.8771522999996,409.8771522999996,409.8771522999996,409.9772424999992,411.0953069999996,down,1,1.2033833999994386,None,411.09796219999953,411.11157619999904,411.6120341000005,411.5955505000002,411.59556320000047,411.5955854999993,,,,,,,,,,B68,001,2023-10-19_10h08.29.084,stroopv1,2023.2.3,59.92297500783463,2023-10-19 10h08.34.188420 +0900,
blue,green,down,0,,,,,4,4,40,7,411.6120341000005,,,,,,,,,,,,,,,,,,,,,,,,,,,,,,,,,,,,,,,,,,411.5970034999991,411.6120341000005,411.6120341000005,411.6120341000005,411.6120341000005,411.71210659999997,412.3130865000003,down,1,0.6844274999984918,None,412.31577619999916,412.3293085999994,412.8297872999992,412.81334609999976,412.8133521,412.81336179999926,,,,,,,,,,B68,001,2023-10-19_10h08.29.084,stroopv1,2023.2.3,59.92297500783463,2023-10-19 10h08.34.188420 +0900,
blue,red,left,0,,,,,4,5,41,6,412.8297872999992,,,,,,,,,,,,,,,,,,,,,,,,,,,,,,,,,,,,,,,,,,412.81465899999966,412.8297872999992,412.8297872999992,412.8297872999992,412.8297872999992,412.9298992999993,413.49750949999907,left,1,0.6666928000013286,None,413.5000607000002,413.51373779999994,414.01421089999894,413.99774679999973,413.9977598000005,413.99778979999974,,,,,,,,,,B68,001,2023-10-19_10h08.29.084,stroopv1,2023.2.3,59.92297500783463,2023-10-19 10h08.34.188420 +0900,
green,red,left,0,,,,,4,6,42,3,414.01421089999894,,,,,,,,,,,,,,,,,,,,,,,,,,,,,,,,,,,,,,,,,,413.99909560000015,414.01421089999894,414.01421089999894,414.01421089999894,414.01421089999894,414.11427639999965,414.6650575999993,left,1,0.6344009000004007,None,414.66755960000046,414.6814254000001,415.1819109999997,415.16546819999894,415.16548109999894,415.1655033999996,,,,,,,,,,B68,001,2023-10-19_10h08.29.084,stroopv1,2023.2.3,59.92297500783463,2023-10-19 10h08.34.188420 +0900,
green,blue,right,0,,,,,4,7,43,5,415.1819109999997,,,,,,,,,,,,,,,,,,,,,,,,,,,,,,,,,,,,,,,,,,415.1670362999994,415.1819109999997,415.1819109999997,415.1819109999997,415.1819109999997,415.28202109999984,416.46683250000024,right,1,1.2746633999995538,None,416.46982260000004,416.48303300000043,416.9835088,416.96706900000027,416.9670757999993,416.96708599999874,,,,,,,,,,B68,001,2023-10-19_10h08.29.084,stroopv1,2023.2.3,59.92297500783463,2023-10-19 10h08.34.188420 +0900,
red,red,left,1,,,,,4,8,44,0,416.9835088,,,,,,,,,,,,,,,,,,,,,,,,,,,,,,,,,,,,,,,,,,416.9684219999999,416.9835088,416.9835088,416.9835088,416.9835088,417.08362959999977,418.25173650000033,left,1,1.2650732999991305,None,418.25476739999976,418.2679731999997,418.7684723000002,418.7519451999997,418.75195109999913,418.75196119999964,,,,,,,,,,B68,001,2023-10-19_10h08.29.084,stroopv1,2023.2.3,59.92297500783463,2023-10-19 10h08.34.188420 +0900,
green,blue,right,0,,,,,5,0,45,5,418.7684723000002,,,,,,,,,,,,,,,,,,,,,,,,,,,,,,,,,,,,,,,,,,418.75326979999954,418.7684723000002,418.7684723000002,418.7684723000002,418.7684723000002,418.86857079999936,420.1535552000005,right,1,1.384591799998816,None,420.1563671999993,420.1696609999999,420.67010449999907,420.6536864999998,420.6536997000003,420.653722699999,,,,,,,,,,B68,001,2023-10-19_10h08.29.084,stroopv1,2023.2.3,59.92297500783463,2023-10-19 10h08.34.188420 +0900,
green,green,down,1,,,,,5,1,46,4,420.67010449999907,,,,,,,,,,,,,,,,,,,,,,,,,,,,,,,,,,,,,,,,,,420.655377699999,420.67010449999907,420.67010449999907,420.67010449999907,420.67010449999907,420.77019389999987,422.2553717999999,down,1,1.5788926999994146,None,422.257873999999,422.2715747000002,422.7720169000004,422.75553910000053,422.7555457999988,422.7555561999998,,,,,,,,,,B68,001,2023-10-19_10h08.29.084,stroopv1,2023.2.3,59.92297500783463,2023-10-19 10h08.34.188420 +0900,
blue,red,left,0,,,,,5,2,47,6,422.7720169000004,,,,,,,,,,,,,,,,,,,,,,,,,,,,,,,,,,,,,,,,,,422.7568468999998,422.7720169000004,422.7720169000004,422.7720169000004,422.7720169000004,422.87214420000055,423.9736254999989,right,0,1.18924799999877,None,423.97612619999927,,,423.9761405999998,423.9761448999998,424.47370500000034,423.9899843000003,424.49022270000023,,,,,,,,B68,001,2023-10-19_10h08.29.084,stroopv1,2023.2.3,59.92297500783463,2023-10-19 10h08.34.188420 +0900,
red,red,left,1,,,,,5,3,48,0,424.49022270000023,,,,,,,,,,,,,,,,,,,,,,,,,,,,,,,,,,,,,,,,,,424.47499679999964,424.49022270000023,424.49022270000023,424.49022270000023,424.49022270000023,424.59027380000043,425.54146709999986,left,1,1.038629700000456,None,425.54405059999954,425.5578394999993,426.058288799999,426.0418150000005,426.04182199999923,426.04183269999885,,,,,,,,,,B68,001,2023-10-19_10h08.29.084,stroopv1,2023.2.3,59.92297500783463,2023-10-19 10h08.34.188420 +0900,
blue,blue,right,1,,,,,5,4,49,8,426.058288799999,,,,,,,,,,,,,,,,,,,,,,,,,,,,,,,,,,,,,,,,,,426.04319829999986,426.058288799999,426.058288799999,426.058288799999,426.058288799999,426.1584081000001,426.7260361999997,right,1,0.6546647000013763,None,426.7290340999989,426.74223749999874,427.2426986999999,427.2262231000004,427.2262290999988,427.2262391000004,,,,,,,,,,B68,001,2023-10-19_10h08.29.084,stroopv1,2023.2.3,59.92297500783463,2023-10-19 10h08.34.188420 +0900,
red,green,down,0,,,,,5,5,50,1,427.2426986999999,,,,,,,,,,,,,,,,,,,,,,,,,,,,,,,,,,,,,,,,,,427.2275408000005,427.2426986999999,427.2426986999999,427.2426986999999,427.2426986999999,427.3427770999988,428.62765989999934,down,1,1.373882899999444,None,428.6307366000001,428.6439123,429.14434710000023,429.127889899999,429.12789580000026,429.1279063000002,,,,,,,,,,B68,001,2023-10-19_10h08.29.084,stroopv1,2023.2.3,59.92297500783463,2023-10-19 10h08.34.188420 +0900,
blue,green,down,0,,,,,5,6,51,7,429.14434710000023,,,,,,,,,,,,,,,,,,,,,,,,,,,,,,,,,,,,,,,,,,429.1292412999992,429.14434710000023,429.14434710000023,429.14434710000023,429.14434710000023,429.24447189999955,430.14571140000044,down,1,0.9921733000010136,None,430.1486769000003,430.16194799999903,430.6624032999989,430.64595589999954,430.6459696999991,430.6459924999999,,,,,,,,,,B68,001,2023-10-19_10h08.29.084,stroopv1,2023.2.3,59.92297500783463,2023-10-19 10h08.34.188420 +0900,
red,blue,right,0,,,,,5,7,52,2,430.6624032999989,,,,,,,,,,,,,,,,,,,,,,,,,,,,,,,,,,,,,,,,,,430.64775980000013,430.6624032999989,430.6624032999989,430.6624032999989,430.6624032999989,430.7624971000005,432.1640501999991,right,1,1.4903760999986844,None,432.16661419999946,432.1803994999991,432.68084239999916,432.66439379999974,432.66440109999894,432.66441139999915,,,,,,,,,,B68,001,2023-10-19_10h08.29.084,stroopv1,2023.2.3,59.92297500783463,2023-10-19 10h08.34.188420 +0900,
green,red,left,0,,,,,5,8,53,3,432.68084239999916,,,,,,,,,,,,,,,,,,,,,,,,,,,,,,,,,,,,,,,,,,432.6657557999988,432.68084239999916,432.68084239999916,432.68084239999916,432.68084239999916,432.7809679000002,433.6155906999993,left,1,0.928125700000237,None,433.61829509999916,433.6317359000004,434.1321723000001,434.1157819,434.1157948,434.1158170999988,,,,,,,,,,B68,001,2023-10-19_10h08.29.084,stroopv1,2023.2.3,59.92297500783463,2023-10-19 10h08.34.188420 +0900,
blue,green,down,0,,,,,6,0,54,7,434.1321723000001,,,,,,,,,,,,,,,,,,,,,,,,,,,,,,,,,,,,,,,,,,434.11720439999954,434.1321723000001,434.1321723000001,434.1321723000001,434.1321723000001,434.2323001999994,435.9846445999992,down,1,1.8442276000005222,None,435.9872128999996,436.0005182999994,436.5009578999998,436.484504,436.4845169,436.48453979999977,,,,,,,,,,B68,001,2023-10-19_10h08.29.084,stroopv1,2023.2.3,59.92297500783463,2023-10-19 10h08.34.188420 +0900,
green,green,down,1,,,,,6,1,55,4,436.5009578999998,,,,,,,,,,,,,,,,,,,,,,,,,,,,,,,,,,,,,,,,,,436.4859352000003,436.5009578999998,436.5009578999998,436.5009578999998,436.5009578999998,436.6010542999993,437.1686967000005,down,1,0.659460200000467,None,437.1716488000002,437.1849103000004,437.6853515999992,437.66888819999986,437.6689009999991,437.6689236000002,,,,,,,,,,B68,001,2023-10-19_10h08.29.084,stroopv1,2023.2.3,59.92297500783463,2023-10-19 10h08.34.188420 +0900,
green,red,left,0,,,,,6,2,56,3,437.6853515999992,,,,,,,,,,,,,,,,,,,,,,,,,,,,,,,,,,,,,,,,,,437.67066200000045,437.6853515999992,437.6853515999992,437.6853515999992,437.6853515999992,437.7854103999998,439.2037672999995,left,1,1.507272799999555,None,439.2062812999993,439.2200359999988,439.72047530000054,439.70400340000015,439.7040094999993,439.70401949999905,,,,,,,,,,B68,001,2023-10-19_10h08.29.084,stroopv1,2023.2.3,59.92297500783463,2023-10-19 10h08.34.188420 +0900,
red,green,down,0,,,,,6,3,57,1,439.72047530000054,,,,,,,,,,,,,,,,,,,,,,,,,,,,,,,,,,,,,,,,,,439.7053015999991,439.72047530000054,439.72047530000054,439.72047530000054,439.72047530000054,439.82060920000004,440.8385270999988,down,1,1.104732600000716,None,440.8410492999992,440.8548231999994,441.3553052999996,441.3387955999988,441.33880229999886,441.3388127999988,,,,,,,,,,B68,001,2023-10-19_10h08.29.084,stroopv1,2023.2.3,59.92297500783463,2023-10-19 10h08.34.188420 +0900,
red,blue,right,0,,,,,6,4,58,2,441.3553052999996,,,,,,,,,,,,,,,,,,,,,,,,,,,,,,,,,,,,,,,,,,441.34016320000046,441.3553052999996,441.3553052999996,441.3553052999996,441.3553052999996,441.45539029999964,442.0063396000005,right,1,0.6379931000010401,None,442.00889619999907,442.0226942999998,442.52318659999946,442.5067829999989,442.5067902999999,442.5068004999994,,,,,,,,,,B68,001,2023-10-19_10h08.29.084,stroopv1,2023.2.3,59.92297500783463,2023-10-19 10h08.34.188420 +0900,
red,red,left,1,,,,,6,5,59,0,442.52318659999946,,,,,,,,,,,,,,,,,,,,,,,,,,,,,,,,,,,,,,,,,,442.50810999999885,442.52318659999946,442.52318659999946,442.52318659999946,442.52318659999946,442.6231523999995,443.1908034999997,left,1,0.6541164999998728,None,443.1935687999994,443.2069627000001,443.70739709999907,443.69094249999944,443.69095579999885,443.6909782999992,,,,,,,,,,B68,001,2023-10-19_10h08.29.084,stroopv1,2023.2.3,59.92297500783463,2023-10-19 10h08.34.188420 +0900,
green,blue,right,0,,,,,6,6,60,5,443.70739709999907,,,,,,,,,,,,,,,,,,,,,,,,,,,,,,,,,,,,,,,,,,443.69261519999964,443.70739709999907,443.70739709999907,443.70739709999907,443.70739709999907,443.8075024999998,445.7096724000003,right,1,1.9974922999990667,None,445.7122691000004,445.72588389999873,446.2263294000004,446.2098735999989,446.2098867000004,446.2099096000002,,,,,,,,,,B68,001,2023-10-19_10h08.29.084,stroopv1,2023.2.3,59.92297500783463,2023-10-19 10h08.34.188420 +0900,
blue,blue,right,1,,,,,6,7,61,8,446.2263294000004,,,,,,,,,,,,,,,,,,,,,,,,,,,,,,,,,,,,,,,,,,446.2113988000001,446.2263294000004,446.2263294000004,446.2263294000004,446.2263294000004,446.3264454,446.8773786999991,right,1,0.6466514000003372,None,446.87996569999996,446.8935748999993,447.39405090000037,447.37757520000014,447.37758810000014,447.3776106000005,,,,,,,,,,B68,001,2023-10-19_10h08.29.084,stroopv1,2023.2.3,59.92297500783463,2023-10-19 10h08.34.188420 +0900,
blue,red,left,0,,,,,6,8,62,6,447.39405090000037,,,,,,,,,,,,,,,,,,,,,,,,,,,,,,,,,,,,,,,,,,447.3792682000003,447.39405090000037,447.39405090000037,447.39405090000037,447.39405090000037,447.4941550000003,448.7121755999997,left,1,1.3028328000000329,None,448.71472150000045,448.72856180000053,449.22900259999915,449.21258469999884,449.2125974999999,449.21262679999927,,,,,,,,,,B68,001,2023-10-19_10h08.29.084,stroopv1,2023.2.3,59.92297500783463,2023-10-19 10h08.34.188420 +0900,
green,green,down,1,,,,,7,0,63,4,449.22900259999915,,,,,,,,,,,,,,,,,,,,,,,,,,,,,,,,,,,,,,,,,,449.2142544999988,449.22900259999915,449.22900259999915,449.22900259999915,449.22900259999915,449.32912229999965,450.24690759999976,down,1,1.0037523999999394,None,450.2493807999999,450.2632647999999,450.76373539999986,450.74728949999917,450.7473028000004,450.7473252,,,,,,,,,,B68,001,2023-10-19_10h08.29.084,stroopv1,2023.2.3,59.92297500783463,2023-10-19 10h08.34.188420 +0900,
blue,red,left,0,,,,,7,1,64,6,450.76373539999986,,,,,,,,,,,,,,,,,,,,,,,,,,,,,,,,,,,,,,,,,,450.7490281999999,450.76373539999986,450.76373539999986,450.76373539999986,450.76373539999986,450.8638343999992,452.098636499999,left,1,1.3248452000007092,None,452.1011684999994,452.1148904999991,452.61537490000046,452.5988978000005,452.5989043999998,452.59891439999956,,,,,,,,,,B68,001,2023-10-19_10h08.29.084,stroopv1,2023.2.3,59.92297500783463,2023-10-19 10h08.34.188420 +0900,
red,green,down,0,,,,,7,2,65,1,452.61537490000046,,,,,,,,,,,,,,,,,,,,,,,,,,,,,,,,,,,,,,,,,,452.60021079999933,452.61537490000046,452.61537490000046,452.61537490000046,452.61537490000046,452.71549289999894,454.50071000000025,down,1,1.8731377000003704,None,454.5032190999991,454.5170656999999,455.0175744999997,455.0010258000002,455.0010327,455.0010430000002,,,,,,,,,,B68,001,2023-10-19_10h08.29.084,stroopv1,2023.2.3,59.92297500783463,2023-10-19 10h08.34.188420 +0900,
red,red,left,1,,,,,7,3,66,0,455.0175744999997,,,,,,,,,,,,,,,,,,,,,,,,,,,,,,,,,,,,,,,,,,455.00235789999897,455.0175744999997,455.0175744999997,455.0175744999997,455.0175744999997,455.11764120000043,456.13561149999987,left,1,1.1034837000006519,None,456.1381619999993,456.1519014000005,456.6523801000003,456.63582529999985,456.63583149999977,456.6358416000003,,,,,,,,,,B68,001,2023-10-19_10h08.29.084,stroopv1,2023.2.3,59.92297500783463,2023-10-19 10h08.34.188420 +0900,
blue,green,down,0,,,,,7,4,67,7,456.6523801000003,,,,,,,,,,,,,,,,,,,,,,,,,,,,,,,,,,,,,,,,,,456.6371576999991,456.6523801000003,456.6523801000003,456.6523801000003,456.6523801000003,456.7524319000004,459.088214899999,down,1,2.428776700000526,None,459.0906911999991,459.10449639999933,459.6049626999993,459.5884925999999,459.5885096000002,459.58853269999963,,,,,,,,,,B68,001,2023-10-19_10h08.29.084,stroopv1,2023.2.3,59.92297500783463,2023-10-19 10h08.34.188420 +0900,
red,blue,right,0,,,,,7,5,68,2,459.6049626999993,,,,,,,,,,,,,,,,,,,,,,,,,,,,,,,,,,,,,,,,,,459.59021980000034,459.6049626999993,459.6049626999993,459.6049626999993,459.6049626999993,459.70504339999934,460.6063371,right,1,0.9958738999994239,None,460.6091424999995,460.6225493000002,461.12343729999884,461.10702879999917,461.10704149999947,461.10706799999934,,,,,,,,,,B68,001,2023-10-19_10h08.29.084,stroopv1,2023.2.3,59.92297500783463,2023-10-19 10h08.34.188420 +0900,
blue,blue,right,1,,,,,7,6,69,8,461.12343729999884,,,,,,,,,,,,,,,,,,,,,,,,,,,,,,,,,,,,,,,,,,461.1083767,461.12343729999884,461.12343729999884,461.12343729999884,461.12343729999884,461.22336519999953,461.7406441999992,right,1,0.6135801000000356,None,461.74338539999917,461.75684829999955,462.25733000000037,462.2408703000001,462.2408832000001,462.2409059999991,,,,,,,,,,B68,001,2023-10-19_10h08.29.084,stroopv1,2023.2.3,59.92297500783463,2023-10-19 10h08.34.188420 +0900,
green,red,left,0,,,,,7,7,70,3,462.25733000000037,,,,,,,,,,,,,,,,,,,,,,,,,,,,,,,,,,,,,,,,,,462.24246370000037,462.25733000000037,462.25733000000037,462.25733000000037,462.25733000000037,462.3573861999994,463.0584643000002,left,1,0.7913007999995898,None,463.06107039999915,463.0746887000005,463.57513629999994,463.55867690000014,463.5586898999991,463.5587128999996,,,,,,,,,,B68,001,2023-10-19_10h08.29.084,stroopv1,2023.2.3,59.92297500783463,2023-10-19 10h08.34.188420 +0900,
green,blue,right,0,,,,,7,8,71,5,463.57513629999994,,,,,,,,,,,,,,,,,,,,,,,,,,,,,,,,,,,,,,,,,,463.560140399999,463.57513629999994,463.57513629999994,463.57513629999994,463.57513629999994,463.67526030000045,465.5772416999989,right,1,1.985880399999587,None,465.5797647999989,465.59364429999914,466.0940718999991,466.07757049999964,466.0775785000005,466.07759049999913,,,,,,,,,,B68,001,2023-10-19_10h08.29.084,stroopv1,2023.2.3,59.92297500783463,2023-10-19 10h08.34.188420 +0900,
green,blue,right,0,,,,,8,0,72,5,466.0940718999991,,,,,,,,,,,,,,,,,,,,,,,,,,,,,,,,,,,,,,,,,,466.0789504000004,466.0940718999991,466.0940718999991,466.0940718999991,466.0940718999991,466.1941956999999,466.7616899000004,right,1,0.666831500000626,None,466.76423149999937,466.7780399000003,467.27848090000043,467.26219429999946,467.26220060000014,467.2622105999999,,,,,,,,,,B68,001,2023-10-19_10h08.29.084,stroopv1,2023.2.3,59.92297500783463,2023-10-19 10h08.34.188420 +0900,
green,red,left,0,,,,,8,1,73,3,467.27848090000043,,,,,,,,,,,,,,,,,,,,,,,,,,,,,,,,,,,,,,,,,,467.26354869999886,467.27848090000043,467.27848090000043,467.27848090000043,467.27848090000043,467.37857350000013,468.1130398000005,left,1,0.8259366000002046,None,468.1158070999991,468.129239599999,468.6296705999994,468.6132299000001,468.6132424999996,468.61326539999936,,,,,,,,,,B68,001,2023-10-19_10h08.29.084,stroopv1,2023.2.3,59.92297500783463,2023-10-19 10h08.34.188420 +0900,
blue,green,down,0,,,,,8,2,74,7,468.6296705999994,,,,,,,,,,,,,,,,,,,,,,,,,,,,,,,,,,,,,,,,,,468.6146940999988,468.6296705999994,468.6296705999994,468.6296705999994,468.6296705999994,468.72978239999975,470.8153084000005,down,1,2.178777099999934,None,470.81784829999924,470.83166789999996,471.3321329999999,471.3155877999998,471.31559430000016,471.31560419999914,,,,,,,,,,B68,001,2023-10-19_10h08.29.084,stroopv1,2023.2.3,59.92297500783463,2023-10-19 10h08.34.188420 +0900,
green,green,down,1,,,,,8,3,75,4,471.3321329999999,,,,,,,,,,,,,,,,,,,,,,,,,,,,,,,,,,,,,,,,,,471.31693189999896,471.3321329999999,471.3321329999999,471.3321329999999,471.3321329999999,471.432264699999,472.01634769999873,down,1,0.6762768999997206,None,472.01893609999934,472.0327314999995,472.53318109999964,472.51663149999877,472.5166384000004,472.5166482000004,,,,,,,,,,B68,001,2023-10-19_10h08.29.084,stroopv1,2023.2.3,59.92297500783463,2023-10-19 10h08.34.188420 +0900,
red,blue,right,0,,,,,8,4,76,2,472.53318109999964,,,,,,,,,,,,,,,,,,,,,,,,,,,,,,,,,,,,,,,,,,472.5179458999992,472.53318109999964,472.53318109999964,472.53318109999964,472.53318109999964,472.6332669000003,474.2018401000005,right,1,1.66789129999961,None,474.2044038999993,474.218026999999,474.7184766999999,474.70197779999944,474.7019848,474.70199479999974,,,,,,,,,,B68,001,2023-10-19_10h08.29.084,stroopv1,2023.2.3,59.92297500783463,2023-10-19 10h08.34.188420 +0900,
blue,blue,right,1,,,,,8,5,77,8,474.7184766999999,,,,,,,,,,,,,,,,,,,,,,,,,,,,,,,,,,,,,,,,,,474.70328639999934,474.7184766999999,474.7184766999999,474.7184766999999,474.7184766999999,474.8185857999997,476.60381459999917,right,1,1.8826246000007814,None,476.6063498000003,476.6201695,477.1206272999989,477.10411589999967,477.104122499999,477.1041325999995,,,,,,,,,,B68,001,2023-10-19_10h08.29.084,stroopv1,2023.2.3,59.92297500783463,2023-10-19 10h08.34.188420 +0900,
red,green,down,0,,,,,8,6,78,1,477.1206272999989,,,,,,,,,,,,,,,,,,,,,,,,,,,,,,,,,,,,,,,,,,477.10543700000017,477.1206272999989,477.1206272999989,477.1206272999989,477.1206272999989,477.2207409999992,478.53903549999995,down,1,1.4160038999998505,None,478.54159660000005,478.5552375999996,479.0556790999999,479.0392209999991,479.03923380000015,479.03925609999897,,,,,,,,,,B68,001,2023-10-19_10h08.29.084,stroopv1,2023.2.3,59.92297500783463,2023-10-19 10h08.34.188420 +0900,
red,red,left,1,,,,,8,7,79,0,479.0556790999999,,,,,,,,,,,,,,,,,,,,,,,,,,,,,,,,,,,,,,,,,,479.04103399999985,479.0556790999999,479.0556790999999,479.0556790999999,479.0556790999999,479.1557773000004,480.0571691999994,left,1,1.0008699999998498,None,480.0597295999996,480.0735067000005,480.5737081999996,480.5571799999998,480.5571866999999,480.5571966999996,,,,,,,,,,B68,001,2023-10-19_10h08.29.084,stroopv1,2023.2.3,59.92297500783463,2023-10-19 10h08.34.188420 +0900,
blue,red,left,0,,,,,8,8,80,6,480.5737081999996,,,,,,,,,,,,,,,,,,,,,,,,,,,,,,,,,,,,,,,,,,480.5584772000002,480.5737081999996,480.5737081999996,480.5737081999996,480.5737081999996,480.67375879999963,481.7584174000003,left,1,1.17920950000007,None,481.76096680000046,481.77477799999906,482.27522829999907,482.2587113999998,482.2587177000005,482.25872809999964,,,,,,,,,,B68,001,2023-10-19_10h08.29.084,stroopv1,2023.2.3,59.92297500783463,2023-10-19 10h08.34.188420 +0900,
green,green,down,1,,,,,9,0,81,4,482.27522829999907,,,,,,,,,,,,,,,,,,,,,,,,,,,,,,,,,,,,,,,,,,482.2600115999994,482.27522829999907,482.27522829999907,482.27522829999907,482.27522829999907,482.37532160000046,483.37653750000027,down,1,1.0932450000000244,None,483.3790786999998,483.3928959999994,483.89333409999927,483.87683149999975,483.87683819999984,483.87684830000035,,,,,,,,,,B68,001,2023-10-19_10h08.29.084,stroopv1,2023.2.3,59.92297500783463,2023-10-19 10h08.34.188420 +0900,
red,red,left,1,,,,,9,1,82,0,483.89333409999927,,,,,,,,,,,,,,,,,,,,,,,,,,,,,,,,,,,,,,,,,,483.8781246999988,483.89333409999927,483.89333409999927,483.89333409999927,483.89333409999927,483.99342400000023,485.478535799999,left,1,1.5711369999989984,None,485.4817678999989,485.49474089999967,485.9952185000002,485.9788480999996,485.9788551999991,485.97886649999964,,,,,,,,,,B68,001,2023-10-19_10h08.29.084,stroopv1,2023.2.3,59.92297500783463,2023-10-19 10h08.34.188420 +0900,
red,green,down,0,,,,,9,2,83,1,485.9952185000002,,,,,,,,,,,,,,,,,,,,,,,,,,,,,,,,,,,,,,,,,,485.9802321999996,485.9952185000002,485.9952185000002,485.9952185000002,485.9952185000002,486.0953078000002,487.3468630999996,down,1,1.3419842999992397,None,487.3496013999993,487.3630727999989,487.8635218999989,487.8470892999994,487.84710239999913,487.84712469999977,,,,,,,,,,B68,001,2023-10-19_10h08.29.084,stroopv1,2023.2.3,59.92297500783463,2023-10-19 10h08.34.188420 +0900,
green,blue,right,0,,,,,9,3,84,5,487.8635218999989,,,,,,,,,,,,,,,,,,,,,,,,,,,,,,,,,,,,,,,,,,487.84867099999974,487.8635218999989,487.8635218999989,487.8635218999989,487.8635218999989,487.96364319999884,488.86474180000005,right,1,0.9935994999996183,None,488.8672914999988,488.88111779999963,489.3815623999999,489.3650290000005,489.3650354000001,489.3650454999988,,,,,,,,,,B68,001,2023-10-19_10h08.29.084,stroopv1,2023.2.3,59.92297500783463,2023-10-19 10h08.34.188420 +0900,
green,red,left,0,,,,,9,4,85,3,489.3815623999999,,,,,,,,,,,,,,,,,,,,,,,,,,,,,,,,,,,,,,,,,,489.36638589999893,489.3815623999999,489.3815623999999,489.3815623999999,489.3815623999999,489.4816675000002,490.39944060000016,left,1,1.0114646999991237,None,490.4020574999995,490.4158360000001,490.9162906999991,490.8998019999999,490.89980829999877,490.89981830000033,,,,,,,,,,B68,001,2023-10-19_10h08.29.084,stroopv1,2023.2.3,59.92297500783463,2023-10-19 10h08.34.188420 +0900,
blue,green,down,0,,,,,9,5,86,7,490.9162906999991,,,,,,,,,,,,,,,,,,,,,,,,,,,,,,,,,,,,,,,,,,490.90110169999934,490.9162906999991,490.9162906999991,490.9162906999991,490.9162906999991,491.0164131999991,493.0686549999991,down,1,2.1488746000013634,None,493.0714432999994,493.08488860000034,493.58533030000035,493.56884139999966,493.5688547999998,493.5688773999991,,,,,,,,,,B68,001,2023-10-19_10h08.29.084,stroopv1,2023.2.3,59.92297500783463,2023-10-19 10h08.34.188420 +0900,
blue,blue,right,1,,,,,9,6,87,8,493.58533030000035,,,,,,,,,,,,,,,,,,,,,,,,,,,,,,,,,,,,,,,,,,493.57051089999914,493.58533030000035,493.58533030000035,493.58533030000035,493.58533030000035,493.68542909999996,494.70347779999975,right,1,1.1113552000006166,None,494.7061273999989,494.71965739999905,495.2200991999998,495.20367350000015,495.20368640000015,495.2037092999999,,,,,,,,,,B68,001,2023-10-19_10h08.29.084,stroopv1,2023.2.3,59.92297500783463,2023-10-19 10h08.34.188420 +0900,
blue,red,left,0,,,,,9,7,88,6,495.2200991999998,,,,,,,,,,,,,,,,,,,,,,,,,,,,,,,,,,,,,,,,,,495.2051868999988,495.2200991999998,495.2200991999998,495.2200991999998,495.2200991999998,495.3202290999998,496.0379917999999,left,1,0.8051689000003535,None,496.0406516000003,496.05417990000024,496.5546273,496.53814690000036,496.53815360000044,496.5381632999997,,,,,,,,,,B68,001,2023-10-19_10h08.29.084,stroopv1,2023.2.3,59.92297500783463,2023-10-19 10h08.34.188420 +0900,
red,blue,right,0,,,,,9,8,89,2,496.5546273,,,,,,,,,,,,,,,,,,,,,,,,,,,,,,,,,,,,,,,,,,496.5394531999991,496.5546273,496.5546273,496.5546273,496.5546273,496.6547520999993,498.3066612999992,right,1,1.7420026999989204,None,498.3092068999995,498.3230893,498.823605399999,498.8070822999998,498.8070886000005,498.80709860000024,,,,,,,,,,B68,001,2023-10-19_10h08.29.084,stroopv1,2023.2.3,59.92297500783463,2023-10-19 10h08.34.188420 +0900,
red,red,left,1,,,,,10,0,90,0,498.823605399999,,,,,,,,,,,,,,,,,,,,,,,,,,,,,,,,,,,,,,,,,,498.8083895999989,498.823605399999,498.823605399999,498.823605399999,498.823605399999,498.92366799999945,499.857910499999,left,1,1.024835099999109,None,499.8604667999989,499.8742920000004,500.3747303,500.35822480000024,500.35823150000033,500.3582416999998,,,,,,,,,,B68,001,2023-10-19_10h08.29.084,stroopv1,2023.2.3,59.92297500783463,2023-10-19 10h08.34.188420 +0900,
blue,green,down,0,,,,,10,1,91,7,500.3747303,,,,,,,,,,,,,,,,,,,,,,,,,,,,,,,,,,,,,,,,,,500.3595637999988,500.3747303,500.3747303,500.3747303,500.3747303,500.47486019999997,502.4269432000001,down,1,2.050164299998869,None,502.4294936999995,502.4433245,502.94370329999947,502.9272068999999,502.9272127999993,502.9272235999997,,,,,,,,,,B68,001,2023-10-19_10h08.29.084,stroopv1,2023.2.3,59.92297500783463,2023-10-19 10h08.34.188420 +0900,
red,blue,right,0,,,,,10,2,92,2,502.94370329999947,,,,,,,,,,,,,,,,,,,,,,,,,,,,,,,,,,,,,,,,,,502.92851209999935,502.94370329999947,502.94370329999947,502.94370329999947,502.94370329999947,503.0438132999989,504.19520659999944,right,1,1.2413785999997344,None,504.1977293,504.21153310000045,504.7119488999997,504.6955302999995,504.69554309999876,504.69556569999986,,,,,,,,,,B68,001,2023-10-19_10h08.29.084,stroopv1,2023.2.3,59.92297500783463,2023-10-19 10h08.34.188420 +0900,
blue,red,left,0,,,,,10,3,93,6,504.7119488999997,,,,,,,,,,,,,,,,,,,,,,,,,,,,,,,,,,,,,,,,,,504.6972926999988,504.7119488999997,504.7119488999997,504.7119488999997,504.7119488999997,504.81206380000003,505.7800643999999,left,1,1.0568713000011485,None,505.7835130000003,505.7962518000004,506.2967417,506.2802816000003,506.28029479999896,506.2803177000005,,,,,,,,,,B68,001,2023-10-19_10h08.29.084,stroopv1,2023.2.3,59.92297500783463,2023-10-19 10h08.34.188420 +0900,
green,red,left,0,,,,,10,4,94,3,506.2967417,,,,,,,,,,,,,,,,,,,,,,,,,,,,,,,,,,,,,,,,,,506.28208040000027,506.2967417,506.2967417,506.2967417,506.2967417,506.39682059999905,507.0643519000005,left,1,0.7518110000000888,None,507.0669182999991,507.08073799999875,507.5812208999996,507.56464229999983,507.56464909999886,507.56465930000013,,,,,,,,,,B68,001,2023-10-19_10h08.29.084,stroopv1,2023.2.3,59.92297500783463,2023-10-19 10h08.34.188420 +0900,
green,blue,right,0,,,,,10,5,95,5,507.5812208999996,,,,,,,,,,,,,,,,,,,,,,,,,,,,,,,,,,,,,,,,,,507.5659655999989,507.5812208999996,507.5812208999996,507.5812208999996,507.5812208999996,507.68130500000007,509.8336369999997,right,1,2.2361129999990226,None,509.83617479999884,509.84985190000043,510.35032429999956,510.33384490000026,510.33385160000034,510.33386210000026,,,,,,,,,,B68,001,2023-10-19_10h08.29.084,stroopv1,2023.2.3,59.92297500783463,2023-10-19 10h08.34.188420 +0900,
red,green,down,0,,,,,10,6,96,1,510.35032429999956,,,,,,,,,,,,,,,,,,,,,,,,,,,,,,,,,,,,,,,,,,510.3351533999994,510.35032429999956,510.35032429999956,510.35032429999956,510.35032429999956,510.45044469999993,512.1022023000005,down,1,1.7384086000001844,None,512.1047543999994,512.1185821999989,512.6190582999989,512.602508,512.6025145999993,512.6025250999992,,,,,,,,,,B68,001,2023-10-19_10h08.29.084,stroopv1,2023.2.3,59.92297500783463,2023-10-19 10h08.34.188420 +0900,
green,green,down,1,,,,,10,7,97,4,512.6190582999989,,,,,,,,,,,,,,,,,,,,,,,,,,,,,,,,,,,,,,,,,,512.6038172999997,512.6190582999989,512.6190582999989,512.6190582999989,512.6190582999989,512.719146899999,513.3201221999989,down,1,0.6856566999995266,None,513.3229608000001,513.3363618999992,513.8367727000004,513.8203560999991,513.8203697999998,513.8203925999987,,,,,,,,,,B68,001,2023-10-19_10h08.29.084,stroopv1,2023.2.3,59.92297500783463,2023-10-19 10h08.34.188420 +0900,
blue,blue,right,1,,,,,10,8,98,8,513.8367727000004,,,,,,,,,,,,,,,,,,,,,,,,,,,,,,,,,,,,,,,,,,513.8220700999991,513.8367727000004,513.8367727000004,513.8367727000004,513.8367727000004,513.9369073999987,515.0716886999999,right,1,1.228045200001361,None,515.0742878000001,515.0878819999998,515.5883505999991,515.5719222999996,515.5719356999998,515.5719583999999,,,,,,,,,,B68,001,2023-10-19_10h08.29.084,stroopv1,2023.2.3,59.92297500783463,2023-10-19 10h08.34.188420 +0900,
blue,red,left,0,,,,,11,0,99,6,515.5883505999991,,,,,,,,,,,,,,,,,,,,,,,,,,,,,,,,,,,,,,,,,,515.5733572999998,515.5883505999991,515.5883505999991,515.5883505999991,515.5883505999991,515.6884594000003,516.5396695999989,left,1,0.9485473999993701,None,516.5423032999988,516.5558616999988,517.0564476,517.0400081999996,517.0400212000004,517.0400436,,,,,,,,,,B68,001,2023-10-19_10h08.29.084,stroopv1,2023.2.3,59.92297500783463,2023-10-19 10h08.34.188420 +0900,
red,red,left,1,,,,,11,1,100,0,517.0564476,,,,,,,,,,,,,,,,,,,,,,,,,,,,,,,,,,,,,,,,,,517.0414376999997,517.0564476,517.0564476,517.0564476,517.0564476,517.1569927,517.6241953999997,left,1,0.552846700000373,None,517.6267601999989,517.6404194999996,518.1406616999993,518.1242055000002,518.1242186,518.1242409999995,,,,,,,,,,B68,001,2023-10-19_10h08.29.084,stroopv1,2023.2.3,59.92297500783463,2023-10-19 10h08.34.188420 +0900,
blue,green,down,0,,,,,11,2,101,7,518.1406616999993,,,,,,,,,,,,,,,,,,,,,,,,,,,,,,,,,,,,,,,,,,518.1257542999992,518.1406616999993,518.1406616999993,518.1406616999993,518.1406616999993,518.2407101999997,519.7093624999998,down,1,1.564637200001016,None,519.7133598,519.7254185999991,520.2259954000001,520.2093812999992,520.209393699999,520.2094161000005,,,,,,,,,,B68,001,2023-10-19_10h08.29.084,stroopv1,2023.2.3,59.92297500783463,2023-10-19 10h08.34.188420 +0900,
red,blue,right,0,,,,,11,3,102,2,520.2259954000001,,,,,,,,,,,,,,,,,,,,,,,,,,,,,,,,,,,,,,,,,,520.2108252999988,520.2259954000001,520.2259954000001,520.2259954000001,520.2259954000001,520.3260596,523.4457088999989,right,1,3.206844500000443,None,523.4482329999992,523.4620888999998,523.9626623999993,523.946007999999,523.9460142999997,523.9460244000002,,,,,,,,,,B68,001,2023-10-19_10h08.29.084,stroopv1,2023.2.3,59.92297500783463,2023-10-19 10h08.34.188420 +0900,
green,blue,right,0,,,,,11,4,103,5,523.9626623999993,,,,,,,,,,,,,,,,,,,,,,,,,,,,,,,,,,,,,,,,,,523.9472984999993,523.9626623999993,523.9626623999993,523.9626623999993,523.9626623999993,524.0626221000002,524.8970133000003,right,1,0.9263104999990901,None,524.8995212999998,524.9133476999996,525.4137989999999,525.3973346000002,525.3973406999994,525.3973504000005,,,,,,,,,,B68,001,2023-10-19_10h08.29.084,stroopv1,2023.2.3,59.92297500783463,2023-10-19 10h08.34.188420 +0900,
green,red,left,0,,,,,11,5,104,3,525.4137989999999,,,,,,,,,,,,,,,,,,,,,,,,,,,,,,,,,,,,,,,,,,525.3986573000002,525.4137989999999,525.4137989999999,525.4137989999999,525.4137989999999,525.5139232000001,526.5151698999998,left,1,1.090791900000113,None,526.5176847000002,526.5314629999993,527.031986,527.0154356000003,527.0154428000005,527.0154528999992,,,,,,,,,,B68,001,2023-10-19_10h08.29.084,stroopv1,2023.2.3,59.92297500783463,2023-10-19 10h08.34.188420 +0900,
green,green,down,1,,,,,11,6,105,4,527.031986,,,,,,,,,,,,,,,,,,,,,,,,,,,,,,,,,,,,,,,,,,527.0168166000003,527.031986,527.031986,527.031986,527.031986,527.1320713999994,527.9997941999991,down,1,0.9606046999997488,None,528.0023229999988,528.0161246999996,528.5165661999999,528.5000973999995,528.5001038999999,528.5001142000001,,,,,,,,,,B68,001,2023-10-19_10h08.29.084,stroopv1,2023.2.3,59.92297500783463,2023-10-19 10h08.34.188420 +0900,
blue,blue,right,1,,,,,11,7,106,8,528.5165661999999,,,,,,,,,,,,,,,,,,,,,,,,,,,,,,,,,,,,,,,,,,528.5014219999994,528.5165661999999,528.5165661999999,528.5165661999999,528.5165661999999,528.6166672999989,529.6013936999989,right,1,1.0767543000001751,None,529.6044399999992,529.6175621000002,530.1180403999988,530.1015800999994,530.101586499999,530.1015974000002,,,,,,,,,,B68,001,2023-10-19_10h08.29.084,stroopv1,2023.2.3,59.92297500783463,2023-10-19 10h08.34.188420 +0900,
red,green,down,0,,,,,11,8,107,1,530.1180403999988,,,,,,,,,,,,,,,,,,,,,,,,,,,,,,,,,,,,,,,,,,530.1028805999995,530.1180403999988,530.1180403999988,530.1180403999988,530.1180403999988,530.2180917999995,531.2361266999997,down,1,1.1068042000006244,None,531.2390598000002,531.2523519999995,531.7528358999989,531.7363678999991,531.7363815999997,531.7364046999992,,,,,,,,,,B68,001,2023-10-19_10h08.29.084,stroopv1,2023.2.3,59.92297500783463,2023-10-19 10h08.34.188420 +0900,
green,blue,right,0,,,,,12,0,108,5,531.7528358999989,,,,,,,,,,,,,,,,,,,,,,,,,,,,,,,,,,,,,,,,,,531.7428118999997,531.7528358999989,531.7528358999989,531.7528358999989,531.7528358999989,531.8528898000004,532.9374642999992,right,1,1.168333999999959,None,532.9400291999991,532.9538678999998,533.4543553999993,533.437868699999,533.4378818000005,533.4379047000002,,,,,,,,,,B68,001,2023-10-19_10h08.29.084,stroopv1,2023.2.3,59.92297500783463,2023-10-19 10h08.34.188420 +0900,
green,red,left,0,,,,,12,1,109,3,533.4543553999993,,,,,,,,,,,,,,,,,,,,,,,,,,,,,,,,,,,,,,,,,,533.4395409999997,533.4543553999993,533.4543553999993,533.4543553999993,533.4543553999993,533.554406199999,534.5557326999988,left,1,1.098409399999582,None,534.5582911000001,534.5719921,535.0724439000005,535.0559976999994,535.0560148999994,535.056035399999,,,,,,,,,,B68,001,2023-10-19_10h08.29.084,stroopv1,2023.2.3,59.92297500783463,2023-10-19 10h08.34.188420 +0900,
blue,red,left,0,,,,,12,2,110,6,535.0724439000005,,,,,,,,,,,,,,,,,,,,,,,,,,,,,,,,,,,,,,,,,,535.057375299999,535.0724439000005,535.0724439000005,535.0724439000005,535.0724439000005,535.1725545999998,536.0743143999989,left,1,1.0002008000010392,None,536.0770603000001,536.090532799999,536.5904907999993,536.5742460999991,536.5742590999998,536.5742816999991,,,,,,,,,,B68,001,2023-10-19_10h08.29.084,stroopv1,2023.2.3,59.92297500783463,2023-10-19 10h08.34.188420 +0900,
blue,green,down,0,,,,,12,3,111,7,536.5904907999993,,,,,,,,,,,,,,,,,,,,,,,,,,,,,,,,,,,,,,,,,,536.5759681999989,536.5904907999993,536.5904907999993,536.5904907999993,536.5904907999993,536.6908074000003,537.7418409000002,down,1,1.1465893000004144,None,537.7443845999987,537.7581955999995,538.2586317000005,538.2421758,538.2421825999991,538.2421923999991,,,,,,,,,,B68,001,2023-10-19_10h08.29.084,stroopv1,2023.2.3,59.92297500783463,2023-10-19 10h08.34.188420 +0900,
red,red,left,1,,,,,12,4,112,0,538.2586317000005,,,,,,,,,,,,,,,,,,,,,,,,,,,,,,,,,,,,,,,,,,538.243484999999,538.2586317000005,538.2586317000005,538.2586317000005,538.2586317000005,538.3587355999989,539.0430128999997,left,1,0.774111400000038,None,539.0454905999995,539.0593642999993,539.5598154999989,539.5432695999989,539.5432767999991,539.5432872999991,,,,,,,,,,B68,001,2023-10-19_10h08.29.084,stroopv1,2023.2.3,59.92297500783463,2023-10-19 10h08.34.188420 +0900,
green,green,down,1,,,,,12,5,113,4,539.5598154999989,,,,,,,,,,,,,,,,,,,,,,,,,,,,,,,,,,,,,,,,,,539.5445746000005,539.5598154999989,539.5598154999989,539.5598154999989,539.5598154999989,539.6599363000005,540.5777367999999,down,1,1.0088295000005019,None,540.580276499999,540.5940443,541.0945180999988,541.0780010999988,541.0780080000004,541.0780185000003,,,,,,,,,,B68,001,2023-10-19_10h08.29.084,stroopv1,2023.2.3,59.92297500783463,2023-10-19 10h08.34.188420 +0900,
red,blue,right,0,,,,,12,6,114,2,541.0945180999988,,,,,,,,,,,,,,,,,,,,,,,,,,,,,,,,,,,,,,,,,,541.0793061999993,541.0945180999988,541.0945180999988,541.0945180999988,541.0945180999988,541.1945768999994,542.0291257999997,right,1,0.9302415999991354,None,542.0317213999988,542.0453300999998,542.5458567999995,542.5293048999993,542.5293117000001,542.5293220000003,,,,,,,,,,B68,001,2023-10-19_10h08.29.084,stroopv1,2023.2.3,59.92297500783463,2023-10-19 10h08.34.188420 +0900,
red,green,down,0,,,,,12,7,115,1,542.5458567999995,,,,,,,,,,,,,,,,,,,,,,,,,,,,,,,,,,,,,,,,,,542.5306311999993,542.5458567999995,542.5458567999995,542.5458567999995,542.5458567999995,542.6458846999994,543.6138505999988,left,0,1.0636222000011912,None,543.6164052999993,,,543.6164202,543.6164248000005,544.1140269999996,543.6300847000002,544.1305642999996,,,,,,,,B68,001,2023-10-19_10h08.29.084,stroopv1,2023.2.3,59.92297500783463,2023-10-19 10h08.34.188420 +0900,
blue,blue,right,1,,,,,12,8,116,8,544.1305642999996,,,,,,,,,,,,,,,,,,,,,,,,,,,,,,,,,,,,,,,,,,544.1153106999991,544.1305642999996,544.1305642999996,544.1305642999996,544.1305642999996,544.2306283999987,546.3330294999996,right,1,2.198843100000886,None,546.3357644999996,546.3491550999988,546.849655,546.8331758999993,546.8331883999999,546.8332123,,,,,,,,,,B68,001,2023-10-19_10h08.29.084,stroopv1,2023.2.3,59.92297500783463,2023-10-19 10h08.34.188420 +0900,
green,green,down,1,,,,,13,0,117,4,546.849655,,,,,,,,,,,,,,,,,,,,,,,,,,,,,,,,,,,,,,,,,,546.8345719999998,546.849655,546.849655,546.849655,546.849655,546.9497216999989,548.0344996000003,down,1,1.1756997000011324,None,548.0374776999997,548.0506999999998,548.5511217999992,548.5346775999988,548.534683599999,548.534694,,,,,,,,,,B68,001,2023-10-19_10h08.29.084,stroopv1,2023.2.3,59.92297500783463,2023-10-19 10h08.34.188420 +0900,
green,blue,right,0,,,,,13,1,118,5,548.5511217999992,,,,,,,,,,,,,,,,,,,,,,,,,,,,,,,,,,,,,,,,,,548.5359664999996,548.5511217999992,548.5511217999992,548.5511217999992,548.5511217999992,548.6512463999989,549.9360689000005,right,1,1.3773722000005364,None,549.9385743000003,549.9524129000001,550.4528950999993,550.4363725999992,550.4363790999996,550.4363892000001,,,,,,,,,,B68,001,2023-10-19_10h08.29.084,stroopv1,2023.2.3,59.92297500783463,2023-10-19 10h08.34.188420 +0900,
green,red,left,0,,,,,13,2,119,3,550.4528950999993,,,,,,,,,,,,,,,,,,,,,,,,,,,,,,,,,,,,,,,,,,550.4376971999991,550.4528950999993,550.4528950999993,550.4528950999993,550.4528950999993,550.5529440999999,551.9379095999993,left,1,1.4759115999986534,None,551.9404390999989,551.954197699999,552.4546410000003,552.4381787000002,552.4381849000001,552.4381954,,,,,,,,,,B68,001,2023-10-19_10h08.29.084,stroopv1,2023.2.3,59.92297500783463,2023-10-19 10h08.34.188420 +0900,
blue,blue,right,1,,,,,13,3,120,8,552.4546410000003,,,,,,,,,,,,,,,,,,,,,,,,,,,,,,,,,,,,,,,,,,552.4394795999997,552.4546410000003,552.4546410000003,552.4546410000003,552.4546410000003,552.5547612999999,553.489203699999,right,1,1.0259771999990335,None,553.4917497999995,553.5055833999995,554.0060247000001,553.9895823999996,553.9895954000003,553.9896229999995,,,,,,,,,,B68,001,2023-10-19_10h08.29.084,stroopv1,2023.2.3,59.92297500783463,2023-10-19 10h08.34.188420 +0900,
red,red,left,1,,,,,13,4,121,0,554.0060247000001,,,,,,,,,,,,,,,,,,,,,,,,,,,,,,,,,,,,,,,,,,553.9910667999993,554.0060247000001,554.0060247000001,554.0060247000001,554.0060247000001,554.1061862999995,555.0744369999993,left,1,1.0593085000000428,None,555.077483699999,555.0906001000003,555.5908471000002,555.5743893999988,555.5744020999991,555.5744245999995,,,,,,,,,,B68,001,2023-10-19_10h08.29.084,stroopv1,2023.2.3,59.92297500783463,2023-10-19 10h08.34.188420 +0900,
blue,red,left,0,,,,,13,5,122,6,555.5908471000002,,,,,,,,,,,,,,,,,,,,,,,,,,,,,,,,,,,,,,,,,,555.5758564999996,555.5908471000002,555.5908471000002,555.5908471000002,555.5908471000002,555.6909037999994,556.3085530999997,left,1,0.7063548999994964,None,556.3114217999992,556.3247905999997,556.8252169999996,556.8087565999995,556.8087696999992,556.8087920999988,,,,,,,,,,B68,001,2023-10-19_10h08.29.084,stroopv1,2023.2.3,59.92297500783463,2023-10-19 10h08.34.188420 +0900,
red,blue,right,0,,,,,13,6,123,2,556.8252169999996,,,,,,,,,,,,,,,,,,,,,,,,,,,,,,,,,,,,,,,,,,556.8104911999999,556.8252169999996,556.8252169999996,556.8252169999996,556.8252169999996,556.9253360999992,558.0099577000001,right,1,1.1832914000005985,None,558.0124658000004,558.0263290999992,558.5267709999989,558.5102267000002,558.5102336,558.5102435999997,,,,,,,,,,B68,001,2023-10-19_10h08.29.084,stroopv1,2023.2.3,59.92297500783463,2023-10-19 10h08.34.188420 +0900,
blue,green,down,0,,,,,13,7,124,7,558.5267709999989,,,,,,,,,,,,,,,,,,,,,,,,,,,,,,,,,,,,,,,,,,558.5116098999988,558.5267709999989,558.5267709999989,558.5267709999989,558.5267709999989,558.6268280999993,559.4445285000002,down,1,0.9059472999997524,None,559.4470485999991,559.4609256000003,559.9613835,559.9448739,559.9448809999994,559.9448916999991,,,,,,,,,,B68,001,2023-10-19_10h08.29.084,stroopv1,2023.2.3,59.92297500783463,2023-10-19 10h08.34.188420 +0900,
red,green,down,0,,,,,13,8,125,1,559.9613835,,,,,,,,,,,,,,,,,,,,,,,,,,,,,,,,,,,,,,,,,,559.9461699000003,559.9613835,559.9613835,559.9613835,559.9613835,560.0616133000003,560.6790385999993,down,1,0.7032919000012043,None,560.681612299999,560.6953486000002,561.1957645000002,561.1793263999989,561.1793324999999,561.1793421999992,,,,,,,,,,B68,001,2023-10-19_10h08.29.084,stroopv1,2023.2.3,59.92297500783463,2023-10-19 10h08.34.188420 +0900,
blue,blue,right,1,,,,,14,0,126,8,561.1957645000002,,,,,,,,,,,,,,,,,,,,,,,,,,,,,,,,,,,,,,,,,,561.1806349999988,561.1957645000002,561.1957645000002,561.1957645000002,561.1957645000002,561.2958854999997,562.1137676999988,right,1,0.9095808000001853,None,562.1165862999987,562.1299600000002,562.6303996999995,562.6139920000005,562.6140054999996,562.6140283999994,,,,,,,,,,B68,001,2023-10-19_10h08.29.084,stroopv1,2023.2.3,59.92297500783463,2023-10-19 10h08.34.188420 +0900,
blue,red,left,0,,,,,14,1,127,6,562.6303996999995,,,,,,,,,,,,,,,,,,,,,,,,,,,,,,,,,,,,,,,,,,562.6156458999994,562.6303996999995,562.6303996999995,562.6303996999995,562.6303996999995,562.7305285000002,563.4815429999999,left,1,0.8344582000008813,None,563.484090599999,563.4978484000003,563.9983308999999,563.9818589999995,563.9818720999992,563.9818947999993,,,,,,,,,,B68,001,2023-10-19_10h08.29.084,stroopv1,2023.2.3,59.92297500783463,2023-10-19 10h08.34.188420 +0900,
green,green,down,1,,,,,14,2,128,4,563.9983308999999,,,,,,,,,,,,,,,,,,,,,,,,,,,,,,,,,,,,,,,,,,563.9833533000001,563.9983308999999,563.9983308999999,563.9983308999999,563.9983308999999,564.098421499999,565.2999099999997,down,1,1.29038539999965,None,565.3028580999999,565.3161779999991,565.8165595999999,565.8001812999992,565.8001944999996,565.8002168999992,,,,,,,,,,B68,001,2023-10-19_10h08.29.084,stroopv1,2023.2.3,59.92297500783463,2023-10-19 10h08.34.188420 +0900,
green,blue,right,0,,,,,14,3,129,5,565.8165595999999,,,,,,,,,,,,,,,,,,,,,,,,,,,,,,,,,,,,,,,,,,565.8016373999999,565.8165595999999,565.8165595999999,565.8165595999999,565.8165595999999,565.9167166999996,567.0180574000005,right,1,1.2003798999994615,None,567.0205530999992,567.0343467999992,567.5347948999988,567.5183282999988,567.5183345999994,567.5183448999996,,,,,,,,,,B68,001,2023-10-19_10h08.29.084,stroopv1,2023.2.3,59.92297500783463,2023-10-19 10h08.34.188420 +0900,
red,blue,right,0,,,,,14,4,130,2,567.5347948999988,,,,,,,,,,,,,,,,,,,,,,,,,,,,,,,,,,,,,,,,,,567.5196218000001,567.5347948999988,567.5347948999988,567.5347948999988,567.5347948999988,567.6349032999988,569.0864634999998,right,1,1.5462406000006013,None,569.0890063999996,569.1028924000002,569.6033126000002,569.5868374999991,569.5868446000004,569.5868544000004,,,,,,,,,,B68,001,2023-10-19_10h08.29.084,stroopv1,2023.2.3,59.92297500783463,2023-10-19 10h08.34.188420 +0900,
red,red,left,1,,,,,14,5,131,0,569.6033126000002,,,,,,,,,,,,,,,,,,,,,,,,,,,,,,,,,,,,,,,,,,569.5882251999992,569.6033126000002,569.6033126000002,569.6033126000002,569.6033126000002,569.7033914999993,570.8716363999993,left,1,1.253832299998976,None,570.874458799999,570.8877714999999,571.3882369999992,571.3718215999997,571.3718350999989,571.3718580000004,,,,,,,,,,B68,001,2023-10-19_10h08.29.084,stroopv1,2023.2.3,59.92297500783463,2023-10-19 10h08.34.188420 +0900,
green,red,left,0,,,,,14,6,132,3,571.3882369999992,,,,,,,,,,,,,,,,,,,,,,,,,,,,,,,,,,,,,,,,,,571.3733126999996,571.3882369999992,571.3882369999992,571.3882369999992,571.3882369999992,571.4883682999989,572.3729411999993,left,1,0.9728566000012506,None,572.3754602999998,572.3891545999995,572.8896002000001,572.8731282999997,572.8731417999988,572.8731642999992,,,,,,,,,,B68,001,2023-10-19_10h08.29.084,stroopv1,2023.2.3,59.92297500783463,2023-10-19 10h08.34.188420 +0900,
blue,green,down,0,,,,,14,7,133,7,572.8896002000001,,,,,,,,,,,,,,,,,,,,,,,,,,,,,,,,,,,,,,,,,,572.8745775999996,572.8896002000001,572.8896002000001,572.8896002000001,572.8896002000001,572.9897036999992,576.2428935999997,down,1,3.3436139000004914,None,576.2454223000004,576.2592667999998,576.7597619999997,576.7432049999989,576.7432121000002,576.7432220999999,,,,,,,,,,B68,001,2023-10-19_10h08.29.084,stroopv1,2023.2.3,59.92297500783463,2023-10-19 10h08.34.188420 +0900,
red,green,down,0,,,,,14,8,134,1,576.7597619999997,,,,,,,,,,,,,,,,,,,,,,,,,,,,,,,,,,,,,,,,,,576.7445435999998,576.7597619999997,576.7597619999997,576.7597619999997,576.7597619999997,576.8598337999993,578.7120510999994,down,1,1.9373374999995576,None,578.7145564000002,578.7281034999996,579.2285952000002,579.2121654999992,579.2121783999992,579.2122010000003,,,,,,,,,,B68,001,2023-10-19_10h08.29.084,stroopv1,2023.2.3,59.92297500783463,2023-10-19 10h08.34.188420 +0900,
red,green,down,0,,,,,15,0,135,1,579.2285952000002,,,,,,,,,,,,,,,,,,,,,,,,,,,,,,,,,,,,,,,,,,579.2136054999992,579.2285952000002,579.2285952000002,579.2285952000002,579.2285952000002,579.3287037999999,579.7962336,down,1,0.5559023999994679,None,579.7988537000001,579.8124049999988,580.3128849999994,580.2964463999997,580.2964594000005,580.2964821000005,,,,,,,,,,B68,001,2023-10-19_10h08.29.084,stroopv1,2023.2.3,59.92297500783463,2023-10-19 10h08.34.188420 +0900,
red,red,left,1,,,,,15,1,136,0,580.3128849999994,,,,,,,,,,,,,,,,,,,,,,,,,,,,,,,,,,,,,,,,,,580.2979710999989,580.3128849999994,580.3128849999994,580.3128849999994,580.3128849999994,580.4130026000003,581.2809141999987,left,1,0.9596574999995937,None,581.2838116999992,581.2970953000004,581.7975477,581.7810826999994,581.7810955000004,581.7811182000005,,,,,,,,,,B68,001,2023-10-19_10h08.29.084,stroopv1,2023.2.3,59.92297500783463,2023-10-19 10h08.34.188420 +0900,
green,red,left,0,,,,,15,2,137,3,581.7975477,,,,,,,,,,,,,,,,,,,,,,,,,,,,,,,,,,,,,,,,,,581.7828477999992,581.7975477,581.7975477,581.7975477,581.7975477,581.8976688999992,582.381819799999,left,1,0.5792819999987842,None,582.3843488000002,582.3980549999997,582.8985510000002,582.8820298999999,582.8820367999997,582.8820469999991,,,,,,,,,,B68,001,2023-10-19_10h08.29.084,stroopv1,2023.2.3,59.92297500783463,2023-10-19 10h08.34.188420 +0900,
blue,blue,right,1,,,,,15,3,138,8,582.8985510000002,,,,,,,,,,,,,,,,,,,,,,,,,,,,,,,,,,,,,,,,,,582.883348899999,582.8985510000002,582.8985510000002,582.8985510000002,582.8985510000002,582.9986227999998,583.4493650000004,right,1,0.5347849999998289,None,583.4518878999988,583.4656904000003,583.9661799999994,583.9496636000003,583.9496703999994,583.949681099999,,,,,,,,,,B68,001,2023-10-19_10h08.29.084,stroopv1,2023.2.3,59.92297500783463,2023-10-19 10h08.34.188420 +0900,
green,blue,right,0,,,,,15,4,139,5,583.9661799999994,,,,,,,,,,,,,,,,,,,,,,,,,,,,,,,,,,,,,,,,,,583.9509834,583.9661799999994,583.9661799999994,583.9661799999994,583.9661799999994,584.0662680000005,584.4670636999999,right,1,0.4907323000006727,None,584.4701131000002,584.4833197999997,584.9837360999991,584.9673043000003,584.9673177000004,584.9673390999997,,,,,,,,,,B68,001,2023-10-19_10h08.29.084,stroopv1,2023.2.3,59.92297500783463,2023-10-19 10h08.34.188420 +0900,
blue,green,down,0,,,,,15,5,140,7,584.9837360999991,,,,,,,,,,,,,,,,,,,,,,,,,,,,,,,,,,,,,,,,,,584.9690904999989,584.9837360999991,584.9837360999991,584.9837360999991,584.9837360999991,585.0838138999989,585.9516096999996,down,1,0.9611072999996395,None,585.9541157999993,585.9679474000004,586.4683950999988,586.4519547999989,586.4519614000001,586.4519715999995,,,,,,,,,,B68,001,2023-10-19_10h08.29.084,stroopv1,2023.2.3,59.92297500783463,2023-10-19 10h08.34.188420 +0900,
green,green,down,1,,,,,15,6,141,4,586.4683950999988,,,,,,,,,,,,,,,,,,,,,,,,,,,,,,,,,,,,,,,,,,586.4533205999996,586.4683950999988,586.4683950999988,586.4683950999988,586.4683950999988,586.5685507999988,586.9693181999992,down,1,0.485045600000376,None,586.9718792000003,586.985549699999,587.4859673999999,587.4695312000003,587.4695441999993,587.469567099999,,,,,,,,,,B68,001,2023-10-19_10h08.29.084,stroopv1,2023.2.3,59.92297500783463,2023-10-19 10h08.34.188420 +0900,
red,blue,right,0,,,,,15,7,142,2,587.4859673999999,,,,,,,,,,,,,,,,,,,,,,,,,,,,,,,,,,,,,,,,,,587.4709384999987,587.4859673999999,587.4859673999999,587.4859673999999,587.4859673999999,587.5860864999995,588.6875056999997,right,1,1.1946977000006882,None,588.6901338999996,588.7036910999996,589.2041678999994,589.1877368999994,589.1877547000004,589.1877776999991,,,,,,,,,,B68,001,2023-10-19_10h08.29.084,stroopv1,2023.2.3,59.92297500783463,2023-10-19 10h08.34.188420 +0900,
blue,red,left,0,,,,,15,8,143,6,589.2041678999994,,,,,,,,,,,,,,,,,,,,,,,,,,,,,,,,,,,,,,,,,,589.1892241000005,589.2041678999994,589.2041678999994,589.2041678999994,589.2041678999994,589.3042937999999,589.9052954999988,left,1,0.6924610000005487,None,589.9078152000002,589.9214852000005,590.4219422999995,590.4055516999997,590.4055649999991,590.4055878999989,,,,,,,,,,B68,001,2023-10-19_10h08.29.084,stroopv1,2023.2.3,59.92297500783463,2023-10-19 10h08.34.188420 +0900,
green,blue,right,0,,,,,16,0,144,5,590.4219422999995,,,,,,,,,,,,,,,,,,,,,,,,,,,,,,,,,,,,,,,,,,590.4070453000004,590.4219422999995,590.4219422999995,590.4219422999995,590.4219422999995,590.5220314999988,591.4399264999993,right,1,1.0105306999994355,None,591.4424738999987,591.4561862999999,591.9566675999995,591.9401966000005,591.9402033999995,591.9402136999997,,,,,,,,,,B68,001,2023-10-19_10h08.29.084,stroopv1,2023.2.3,59.92297500783463,2023-10-19 10h08.34.188420 +0900,
red,green,down,0,,,,,16,1,145,1,591.9566675999995,,,,,,,,,,,,,,,,,,,,,,,,,,,,,,,,,,,,,,,,,,591.9414980000001,591.9566675999995,591.9566675999995,591.9566675999995,591.9566675999995,592.0569037999994,592.8747153000004,left,0,0.9159720999996352,None,592.8771901,,,592.8772040999993,592.877208599999,593.3747762000003,592.8908276000002,593.3912411999991,,,,,,,,B68,001,2023-10-19_10h08.29.084,stroopv1,2023.2.3,59.92297500783463,2023-10-19 10h08.34.188420 +0900,
blue,blue,right,1,,,,,16,2,146,8,593.3912411999991,,,,,,,,,,,,,,,,,,,,,,,,,,,,,,,,,,,,,,,,,,593.3760789999997,593.3912411999991,593.3912411999991,593.3912411999991,593.3912411999991,593.491365599999,596.0607956000003,right,1,2.6656560999999783,None,596.0633457000004,596.0769805999989,596.5774600000004,596.5609688999994,596.5609817999994,596.5610056000005,,,,,,,,,,B68,001,2023-10-19_10h08.29.084,stroopv1,2023.2.3,59.92297500783463,2023-10-19 10h08.34.188420 +0900,
green,green,down,1,,,,,16,3,147,4,596.5774600000004,,,,,,,,,,,,,,,,,,,,,,,,,,,,,,,,,,,,,,,,,,596.5624609999995,596.5774600000004,596.5774600000004,596.5774600000004,596.5774600000004,596.6775173999995,597.3119159999987,down,1,0.7272838999997475,None,597.3149219999996,597.3280964999994,597.8285434999998,597.8120868000005,597.8120927999989,597.8121033999996,,,,,,,,,,B68,001,2023-10-19_10h08.29.084,stroopv1,2023.2.3,59.92297500783463,2023-10-19 10h08.34.188420 +0900,
blue,red,left,0,,,,,16,4,148,6,597.8285434999998,,,,,,,,,,,,,,,,,,,,,,,,,,,,,,,,,,,,,,,,,,597.8134083999994,597.8285434999998,597.8285434999998,597.8285434999998,597.8285434999998,597.9286675000003,598.9800612999989,left,1,1.1406112000004214,None,598.9826240999992,598.9962553000005,599.4967466999988,599.4802461999989,599.4802529999997,599.4802631000002,,,,,,,,,,B68,001,2023-10-19_10h08.29.084,stroopv1,2023.2.3,59.92297500783463,2023-10-19 10h08.34.188420 +0900,
blue,green,down,0,,,,,16,5,149,7,599.4967466999988,,,,,,,,,,,,,,,,,,,,,,,,,,,,,,,,,,,,,,,,,,599.4815631000001,599.4967466999988,599.4967466999988,599.4967466999988,599.4967466999988,599.5967975999993,600.6982037999987,down,1,1.2006767000002583,None,600.7006990999998,600.7144678999994,601.2149086999998,601.1984816000004,601.1984874999998,601.1984969000005,,,,,,,,,,B68,001,2023-10-19_10h08.29.084,stroopv1,2023.2.3,59.92297500783463,2023-10-19 10h08.34.188420 +0900,
red,blue,right,0,,,,,16,6,150,2,601.2149086999998,,,,,,,,,,,,,,,,,,,,,,,,,,,,,,,,,,,,,,,,,,601.1998112000001,601.2149086999998,601.2149086999998,601.2149086999998,601.2149086999998,601.3149670000003,602.3497389000004,right,1,1.130406900001617,None,602.3524500000003,602.3659011999989,602.8663493000004,602.8499293999994,602.8499419999989,602.8499640999999,,,,,,,,,,B68,001,2023-10-19_10h08.29.084,stroopv1,2023.2.3,59.92297500783463,2023-10-19 10h08.34.188420 +0900,
red,red,left,1,,,,,16,7,151,0,602.8663493000004,,,,,,,,,,,,,,,,,,,,,,,,,,,,,,,,,,,,,,,,,,602.8516302999997,602.8663493000004,602.8663493000004,602.8663493000004,602.8663493000004,602.9664764999998,603.5507847999997,left,1,0.6789510999988124,None,603.5535405999999,603.5669883999999,604.0674311999992,604.0510065999988,604.0510195999996,604.0510422999996,,,,,,,,,,B68,001,2023-10-19_10h08.29.084,stroopv1,2023.2.3,59.92297500783463,2023-10-19 10h08.34.188420 +0900,
green,red,left,0,,,,,16,8,152,3,604.0674311999992,,,,,,,,,,,,,,,,,,,,,,,,,,,,,,,,,,,,,,,,,,604.0526615999988,604.0674311999992,604.0674311999992,604.0674311999992,604.0674311999992,604.1675469000002,605.1688713000003,down,0,1.0934269999997923,None,605.1714078000005,,,605.1714221000002,605.1714265999999,605.6691140999992,605.1851303999993,605.6855667,,,,,,,,B68,001,2023-10-19_10h08.29.084,stroopv1,2023.2.3,59.92297500783463,2023-10-19 10h08.34.188420 +0900,
red,red,left,1,,,,,17,0,153,0,605.6855667,,,,,,,,,,,,,,,,,,,,,,,,,,,,,,,,,,,,,,,,,,605.6704288000001,605.6855667,605.6855667,605.6855667,605.6855667,605.7856606000005,608.138133299999,left,1,2.4513415999990684,None,608.1406471999999,608.1544472999994,608.654896,608.6383979999991,608.6384048,608.6384149999994,,,,,,,,,,B68,001,2023-10-19_10h08.29.084,stroopv1,2023.2.3,59.92297500783463,2023-10-19 10h08.34.188420 +0900,
green,red,left,0,,,,,17,1,154,3,608.654896,,,,,,,,,,,,,,,,,,,,,,,,,,,,,,,,,,,,,,,,,,608.6397158,608.654896,608.654896,608.654896,608.654896,608.7549805999988,609.1389686000002,left,1,0.4736909999992349,None,609.1415101999992,609.1553423999994,609.655761,609.6392672000002,609.6392739000003,609.6392842000005,,,,,,,,,,B68,001,2023-10-19_10h08.29.084,stroopv1,2023.2.3,59.92297500783463,2023-10-19 10h08.34.188420 +0900,
blue,red,left,0,,,,,17,2,155,6,609.655761,,,,,,,,,,,,,,,,,,,,,,,,,,,,,,,,,,,,,,,,,,609.6405966999992,609.655761,609.655761,609.655761,609.655761,609.7558795999994,610.3067047000004,left,1,0.6409232000005431,None,610.3092244999989,610.3230200999988,610.8236532999999,610.8069995000005,610.8070057999994,610.8070158999999,,,,,,,,,,B68,001,2023-10-19_10h08.29.084,stroopv1,2023.2.3,59.92297500783463,2023-10-19 10h08.34.188420 +0900,
blue,blue,right,1,,,,,17,3,156,8,610.8236532999999,,,,,,,,,,,,,,,,,,,,,,,,,,,,,,,,,,,,,,,,,,610.8083035,610.8236532999999,610.8236532999999,610.8236532999999,610.8236532999999,610.9237095999997,611.4580473999995,right,1,0.6252110000004905,None,611.4605257999992,611.4743153999989,611.9745258000003,611.9580134999997,611.9580205999991,611.9580313999995,,,,,,,,,,B68,001,2023-10-19_10h08.29.084,stroopv1,2023.2.3,59.92297500783463,2023-10-19 10h08.34.188420 +0900,
red,blue,right,0,,,,,17,4,157,2,611.9745258000003,,,,,,,,,,,,,,,,,,,,,,,,,,,,,,,,,,,,,,,,,,611.9593767999995,611.9745258000003,611.9745258000003,611.9745258000003,611.9745258000003,612.0746139000003,612.9757831999996,right,1,0.9939657999984775,None,612.9783288999988,612.9921008999991,613.4925509999994,613.4760377000002,613.4760449000005,613.4760557999998,,,,,,,,,,B68,001,2023-10-19_10h08.29.084,stroopv1,2023.2.3,59.92297500783463,2023-10-19 10h08.34.188420 +0900,
red,green,down,0,,,,,17,5,158,1,613.4925509999994,,,,,,,,,,,,,,,,,,,,,,,,,,,,,,,,,,,,,,,,,,613.4775510999989,613.4925509999994,613.4925509999994,613.4925509999994,613.4925509999994,613.5926433000004,615.2944955000003,down,1,1.7961988000006386,None,615.2969909999993,615.3108410000004,615.8112929999988,615.7948347000001,615.7948481999993,615.7948708999993,,,,,,,,,,B68,001,2023-10-19_10h08.29.084,stroopv1,2023.2.3,59.92297500783463,2023-10-19 10h08.34.188420 +0900,
green,blue,right,0,,,,,17,6,159,5,615.8112929999988,,,,,,,,,,,,,,,,,,,,,,,,,,,,,,,,,,,,,,,,,,615.7963005000001,615.8112929999988,615.8112929999988,615.8112929999988,615.8112929999988,615.9113821999999,617.3464562999998,right,1,1.525602899999285,None,617.3491945000005,617.3626516000004,617.863096699999,617.846674299999,617.8466872999998,617.8467136999989,,,,,,,,,,B68,001,2023-10-19_10h08.29.084,stroopv1,2023.2.3,59.92297500783463,2023-10-19 10h08.34.188420 +0900,
green,green,down,1,,,,,17,7,160,4,617.863096699999,,,,,,,,,,,,,,,,,,,,,,,,,,,,,,,,,,,,,,,,,,617.8483197999994,617.863096699999,617.863096699999,617.863096699999,617.863096699999,617.9632086999991,618.6977382000005,down,1,0.8182784999989963,None,618.7006256999994,618.713891899999,619.2143226999997,619.1978906000004,619.1979038999998,619.1979267999995,,,,,,,,,,B68,001,2023-10-19_10h08.29.084,stroopv1,2023.2.3,59.92297500783463,2023-10-19 10h08.34.188420 +0900,
blue,green,down,0,,,,,17,8,161,7,619.2143226999997,,,,,,,,,,,,,,,,,,,,,,,,,,,,,,,,,,,,,,,,,,619.1996682999998,619.2143226999997,619.2143226999997,619.2143226999997,619.2143226999997,619.3144941999999,619.6985391999988,down,1,0.4746965000013006,None,619.7013848999995,619.7147466999995,620.2152320999994,620.1987871999991,620.1988005999992,620.1988237000005,,,,,,,,,,B68,001,2023-10-19_10h08.29.084,stroopv1,2023.2.3,59.92297500783463,2023-10-19 10h08.34.188420 +0900,
red,red,left,1,,,,,18,0,162,0,620.2152320999994,,,,,,,,,,,,,,,,,,,,,,,,,,,,,,,,,,,,,,,,,,620.2004648000002,620.2152320999994,620.2152320999994,620.2152320999994,620.2152320999994,620.3153253,620.7995135000001,left,1,0.5780966999991506,None,620.8024134999996,620.8157384999995,621.3161803000003,621.2997715999991,621.2997845999998,621.2998076000003,,,,,,,,,,B68,001,2023-10-19_10h08.29.084,stroopv1,2023.2.3,59.92297500783463,2023-10-19 10h08.34.188420 +0900,
red,green,down,0,,,,,18,1,163,1,621.3161803000003,,,,,,,,,,,,,,,,,,,,,,,,,,,,,,,,,,,,,,,,,,621.3015930000001,621.3161803000003,621.3161803000003,621.3161803000003,621.3161803000003,621.4163080999988,622.6678761000003,down,1,1.348925700000109,None,622.6705153999992,622.684104599999,623.1845381999992,623.1680651999995,623.168078499999,623.1681009999993,,,,,,,,,,B68,001,2023-10-19_10h08.29.084,stroopv1,2023.2.3,59.92297500783463,2023-10-19 10h08.34.188420 +0900,
green,red,left,0,,,,,18,2,164,3,623.1845381999992,,,,,,,,,,,,,,,,,,,,,,,,,,,,,,,,,,,,,,,,,,623.1695608999999,623.1845381999992,623.1845381999992,623.1845381999992,623.1845381999992,623.2846406999997,623.8356151999997,left,1,0.6486993999988044,None,623.8384925999999,623.8517905999997,624.3522668000005,624.3358709000004,624.3358833000002,624.3359046000005,,,,,,,,,,B68,001,2023-10-19_10h08.29.084,stroopv1,2023.2.3,59.92297500783463,2023-10-19 10h08.34.188420 +0900,
blue,green,down,0,,,,,18,3,165,7,624.3522668000005,,,,,,,,,,,,,,,,,,,,,,,,,,,,,,,,,,,,,,,,,,624.3373016000005,624.3522668000005,624.3522668000005,624.3522668000005,624.3522668000005,624.4523482999994,625.8209566999994,down,1,1.4647378999998182,None,625.8235968999998,625.8369356000003,626.3373551999994,626.3208587999998,626.3208658999993,626.3208763000002,,,,,,,,,,B68,001,2023-10-19_10h08.29.084,stroopv1,2023.2.3,59.92297500783463,2023-10-19 10h08.34.188420 +0900,
red,blue,right,0,,,,,18,4,166,2,626.3373551999994,,,,,,,,,,,,,,,,,,,,,,,,,,,,,,,,,,,,,,,,,,626.3221706000004,626.3373551999994,626.3373551999994,626.3373551999994,626.3373551999994,626.4374853999998,627.3052932999999,right,1,0.9517500999991171,None,627.3082926999996,627.3215473,627.8219998000004,627.8054941999999,627.8055005999995,627.8055108999997,,,,,,,,,,B68,001,2023-10-19_10h08.29.084,stroopv1,2023.2.3,59.92297500783463,2023-10-19 10h08.34.188420 +0900,
green,green,down,1,,,,,18,5,167,4,627.8219998000004,,,,,,,,,,,,,,,,,,,,,,,,,,,,,,,,,,,,,,,,,,627.806815599999,627.8219998000004,627.8219998000004,627.8219998000004,627.8219998000004,627.9221292999991,628.3727966999995,None,0,,,628.3740911000004,,,628.3741066000002,628.3741109999992,628.8731576999999,628.3892154999994,628.8896526999997,,,,,,,,B68,001,2023-10-19_10h08.29.084,stroopv1,2023.2.3,59.92297500783463,2023-10-19 10h08.34.188420 +0900,
,,,,,,,,,,,,,,,,,,,,,,,,,,,,,,,,,,,,,,,,,,,,,,628.8731865999998,628.8896526999997,628.8896526999997,628.8896526999997,628.9897440999994,631.8923343999995,928.8745786,None,,,,,,,,,,,,,,,,,,,,,,,,,,,B68,001,2023-10-19_10h08.29.084,stroopv1,2023.2.3,59.92297500783463,2023-10-19 10h08.34.188420 +0900,
,,,,,,,,,,,,,,,,,,,,,,,,,,,,,,,,,,,,,,,,,,,,,,,,,,,,,,,,,,,,,,,,,,,,,,,,,928.8745954000005,928.8911866999988,928.8911866999988,928.8911866999988,928.9912683999992,933.8790412999988,None,B68,001,2023-10-19_10h08.29.084,stroopv1,2023.2.3,59.92297500783463,2023-10-19 10h08.34.188420 +0900,
