word,colour,corrAns,congruent,trials.thisRepN,trials.thisTrialN,trials.thisN,trials.thisIndex,StroopTestLoop.thisRepN,StroopTestLoop.thisTrialN,StroopTestLoop.thisN,StroopTestLoop.thisIndex,thisRow.t,notes,instruction.started,instrText.started,key_resp.started,LightSensorTrggr_5.started,LightSensorTrggr_5.stopped,instruction.stopped,Trial.started,TrialsInstruction.started,TrialsTarget.started,TrialsResponse.started,LightSensorTrggr_4.started,skip_button.started,LightSensorTrggr_4.stopped,Trial.stopped,TrialsResponse.keys,TrialsResponse.corr,TrialsResponse.rt,TrialsResponse.duration,skip_button.keys,begin_experiment.started,beginText.started,LightSensorTrggr_6.started,LightSensorTrggr_6.stopped,begin_experiment.stopped,Rest_Time.started,text.started,LightSensorTrggr_2.started,skip_button_2.started,LightSensorTrggr_2.stopped,skip_button_2.stopped,Rest_Time.stopped,skip_button_2.keys,StroopTest.started,TestInstruction.started,target.started,response.started,LightSensorTrggr.started,LightSensorTrggr.stopped,StroopTest.stopped,response.keys,response.corr,response.rt,response.duration,text.stopped,finished.started,farewelText.started,LightSensorTrggr_3.started,key_resp_3.started,LightSensorTrggr_3.stopped,finished.stopped,key_resp_3.keys,participant,session,date,expName,psychopyVersion,frameRate,expStart,
xxxxx,red,left,,0,0,0,0,,,,,10.022315500000332,,0.013577200001236633,0.03017350000118313,0.03017350000118313,0.03017350000118313,0.13049170000158483,10.005697300000975,10.00905750000129,10.022315500000332,10.022315500000332,10.022315500000332,10.022315500000332,10.022315500000332,10.122437600000922,11.173964600000545,left,1,1.1421279000005597,None,None,,,,,,,,,,,,,,,,,,,,,,,,,,,,,,,,,B68,002,2023-10-19_10h27.14.450,stroopv1,2023.2.3,59.97005095671101,2023-10-19 10h27.22.195343 +0900,
xxxxx,green,down,,0,1,1,1,,,,,11.190063500000178,,,,,,,,11.174608200000876,11.190063500000178,11.190063500000178,11.190063500000178,11.190063500000178,11.190063500000178,11.290146299999833,12.24157390000073,down,1,1.0467773999989731,None,None,,,,,,,,,,,,,,,,,,,,,,,,,,,,,,,,,B68,002,2023-10-19_10h27.14.450,stroopv1,2023.2.3,59.97005095671101,2023-10-19 10h27.22.195343 +0900,
xxxxx,blue,right,,0,2,2,2,,,,,12.257680700000492,,,,,,,,12.241878599999836,12.257680700000492,12.257680700000492,12.257680700000492,12.257680700000492,12.257680700000492,12.357798000000912,12.708660800000871,right,1,0.4436005000006844,None,None,,,,,,,,,,,,,,,,,,,,,,,,,,,,,,,,,B68,002,2023-10-19_10h27.14.450,stroopv1,2023.2.3,59.97005095671101,2023-10-19 10h27.22.195343 +0900,
xxxxx,green,down,,1,0,3,1,,,,,12.724728900000628,,,,,,,,12.709153900001184,12.724728900000628,12.724728900000628,12.724728900000628,12.724728900000628,12.724728900000628,12.82487730000139,13.759443000000829,down,1,1.032034300000305,None,None,,,,,,,,,,,,,,,,,,,,,,,,,,,,,,,,,B68,002,2023-10-19_10h27.14.450,stroopv1,2023.2.3,59.97005095671101,2023-10-19 10h27.22.195343 +0900,
xxxxx,blue,right,,1,1,4,2,,,,,13.775704800000312,,,,,,,,13.759702800000014,13.775704800000312,13.775704800000312,13.775704800000312,13.775704800000312,13.775704800000312,13.875819900000351,14.393269600001076,right,1,0.604998799999521,None,None,,,,,,,,,,,,,,,,,,,,,,,,,,,,,,,,,B68,002,2023-10-19_10h27.14.450,stroopv1,2023.2.3,59.97005095671101,2023-10-19 10h27.22.195343 +0900,
xxxxx,red,left,,1,2,5,0,,,,,14.409605400000146,,,,,,,,14.393521699999837,14.409605400000146,14.409605400000146,14.409605400000146,14.409605400000146,14.409605400000146,14.50970050000069,14.827070500001355,left,1,0.4036493999992672,None,None,,,,,,,,,,,,,,,,,,,,,,,,,,,,,,,,,B68,002,2023-10-19_10h27.14.450,stroopv1,2023.2.3,59.97005095671101,2023-10-19 10h27.22.195343 +0900,
,,,,,,,,,,,,,,,,,,,,,,,,,,,,,,,,,14.82724860000053,14.84332010000071,14.84332010000071,14.943417000000409,19.831185600000026,19.831191799999942,19.847795400000905,19.847795400000905,19.847795400000905,19.94788410000001,22.850510600001144,319.8327878,None,,,,,,,,,,,,,,,,,,,,B68,002,2023-10-19_10h27.14.450,stroopv1,2023.2.3,59.97005095671101,2023-10-19 10h27.22.195343 +0900,
blue,green,down,0,,,,,0,0,0,7,319.8495556000016,,,,,,,,,,,,,,,,,,,,,,,,,,,,,,,,,,319.84033679999993,319.8495556000016,319.8495556000016,319.8495556000016,319.8495556000016,319.9495181000002,322.5355498000008,down,1,2.675842000000557,None,,,,,,,,,B68,002,2023-10-19_10h27.14.450,stroopv1,2023.2.3,59.97005095671101,2023-10-19 10h27.22.195343 +0900,
blue,blue,right,1,,,,,0,1,1,8,322.5518118,,,,,,,,,,,,,,,,,,,,,,,,,,,,,,,,,,322.54255379999995,322.5518118,322.5518118,322.5518118,322.5518118,322.6518902000007,325.88862280000103,right,1,3.333312400000068,None,,,,,,,,,B68,002,2023-10-19_10h27.14.450,stroopv1,2023.2.3,59.97005095671101,2023-10-19 10h27.22.195343 +0900,
red,red,left,1,,,,,0,2,2,0,325.9047721000006,,,,,,,,,,,,,,,,,,,,,,,,,,,,,,,,,,325.8927304000008,325.9047721000006,325.9047721000006,325.9047721000006,325.9047721000006,326.00488550000046,326.62292420000085,left,1,0.7158939000000828,None,,,,,,,,,B68,002,2023-10-19_10h27.14.450,stroopv1,2023.2.3,59.97005095671101,2023-10-19 10h27.22.195343 +0900,
green,red,left,0,,,,,0,3,3,3,326.6387676000013,,,,,,,,,,,,,,,,,,,,,,,,,,,,,,,,,,326.6269101000016,326.6387676000013,326.6387676000013,326.6387676000013,326.6387676000013,326.7389389,327.2898894000009,left,1,0.6387052999998559,None,,,,,,,,,B68,002,2023-10-19_10h27.14.450,stroopv1,2023.2.3,59.97005095671101,2023-10-19 10h27.22.195343 +0900,
red,blue,right,0,,,,,0,4,4,2,327.30605260000084,,,,,,,,,,,,,,,,,,,,,,,,,,,,,,,,,,327.29401340000004,327.30605260000084,327.30605260000084,327.30605260000084,327.30605260000084,327.4061462999998,328.0571677000007,right,1,0.7388501000004908,None,,,,,,,,,B68,002,2023-10-19_10h27.14.450,stroopv1,2023.2.3,59.97005095671101,2023-10-19 10h27.22.195343 +0900,
green,green,down,1,,,,,0,5,5,4,328.07340750000003,,,,,,,,,,,,,,,,,,,,,,,,,,,,,,,,,,328.06135390000054,328.07340750000003,328.07340750000003,328.07340750000003,328.07340750000003,328.1735306999999,328.657779000001,down,1,0.5794613999987632,None,,,,,,,,,B68,002,2023-10-19_10h27.14.450,stroopv1,2023.2.3,59.97005095671101,2023-10-19 10h27.22.195343 +0900,
blue,red,left,0,,,,,0,6,6,6,328.6739118000005,,,,,,,,,,,,,,,,,,,,,,,,,,,,,,,,,,328.6616369000003,328.6739118000005,328.6739118000005,328.6739118000005,328.6739118000005,328.7741014000003,329.4750113000009,left,1,0.7952311999997619,None,,,,,,,,,B68,002,2023-10-19_10h27.14.450,stroopv1,2023.2.3,59.97005095671101,2023-10-19 10h27.22.195343 +0900,
green,blue,right,0,,,,,0,7,7,5,329.49137880000126,,,,,,,,,,,,,,,,,,,,,,,,,,,,,,,,,,329.4788486000016,329.49137880000126,329.49137880000126,329.49137880000126,329.49137880000126,329.5914678000008,330.1756404000007,right,1,0.6814082000000781,None,,,,,,,,,B68,002,2023-10-19_10h27.14.450,stroopv1,2023.2.3,59.97005095671101,2023-10-19 10h27.22.195343 +0900,
red,green,down,0,,,,,0,8,8,1,330.1919708000005,,,,,,,,,,,,,,,,,,,,,,,,,,,,,,,,,,330.1794673000004,330.1919708000005,330.1919708000005,330.1919708000005,330.1919708000005,330.29208500000095,331.30996060000143,down,1,1.117059000000154,None,,,,,,,,,B68,002,2023-10-19_10h27.14.450,stroopv1,2023.2.3,59.97005095671101,2023-10-19 10h27.22.195343 +0900,
red,green,down,0,,,,,1,0,9,1,331.3263158000009,,,,,,,,,,,,,,,,,,,,,,,,,,,,,,,,,,331.31376550000095,331.3263158000009,331.3263158000009,331.3263158000009,331.3263158000009,331.4264450999999,332.12738660000105,down,1,0.7989402000002883,None,,,,,,,,,B68,002,2023-10-19_10h27.14.450,stroopv1,2023.2.3,59.97005095671101,2023-10-19 10h27.22.195343 +0900,
red,blue,right,0,,,,,1,1,10,2,332.14368600000125,,,,,,,,,,,,,,,,,,,,,,,,,,,,,,,,,,332.1312117000016,332.14368600000125,332.14368600000125,332.14368600000125,332.14368600000125,332.24383750000015,332.99497260000135,right,1,0.845694800000274,None,,,,,,,,,B68,002,2023-10-19_10h27.14.450,stroopv1,2023.2.3,59.97005095671101,2023-10-19 10h27.22.195343 +0900,
blue,blue,right,1,,,,,1,2,11,8,333.01116060000095,,,,,,,,,,,,,,,,,,,,,,,,,,,,,,,,,,332.9990123000007,333.01116060000095,333.01116060000095,333.01116060000095,333.01116060000095,333.11127510000006,333.6454158000015,right,1,0.6180815000006987,None,,,,,,,,,B68,002,2023-10-19_10h27.14.450,stroopv1,2023.2.3,59.97005095671101,2023-10-19 10h27.22.195343 +0900,
green,green,down,1,,,,,1,3,12,4,333.6617068000014,,,,,,,,,,,,,,,,,,,,,,,,,,,,,,,,,,333.64923590000035,333.6617068000014,333.6617068000014,333.6617068000014,333.6617068000014,333.76185690000057,334.4629474000012,down,1,0.7997414000001299,None,,,,,,,,,B68,002,2023-10-19_10h27.14.450,stroopv1,2023.2.3,59.97005095671101,2023-10-19 10h27.22.195343 +0900,
green,blue,right,0,,,,,1,4,13,5,334.4791522000014,,,,,,,,,,,,,,,,,,,,,,,,,,,,,,,,,,334.46708110000145,334.4791522000014,334.4791522000014,334.4791522000014,334.4791522000014,334.5792529999999,335.3470524000004,right,1,0.8623536000013701,None,,,,,,,,,B68,002,2023-10-19_10h27.14.450,stroopv1,2023.2.3,59.97005095671101,2023-10-19 10h27.22.195343 +0900,
red,red,left,1,,,,,1,5,14,0,335.3632608000007,,,,,,,,,,,,,,,,,,,,,,,,,,,,,,,,,,335.3511427000012,335.3632608000007,335.3632608000007,335.3632608000007,335.3632608000007,335.4633791000015,335.9309451000008,left,1,0.5543218000002526,None,,,,,,,,,B68,002,2023-10-19_10h27.14.450,stroopv1,2023.2.3,59.97005095671101,2023-10-19 10h27.22.195343 +0900,
blue,green,down,0,,,,,1,6,15,7,335.94712080000136,,,,,,,,,,,,,,,,,,,,,,,,,,,,,,,,,,335.93523580000146,335.94712080000136,335.94712080000136,335.94712080000136,335.94712080000136,336.04717549999987,337.3987928000006,down,1,1.4415773000000627,None,,,,,,,,,B68,002,2023-10-19_10h27.14.450,stroopv1,2023.2.3,59.97005095671101,2023-10-19 10h27.22.195343 +0900,
green,red,left,0,,,,,1,7,16,3,337.41507170000114,,,,,,,,,,,,,,,,,,,,,,,,,,,,,,,,,,337.4025941,337.41507170000114,337.41507170000114,337.41507170000114,337.41507170000114,337.5152179000015,338.5166599000004,left,1,1.093839899998784,None,,,,,,,,,B68,002,2023-10-19_10h27.14.450,stroopv1,2023.2.3,59.97005095671101,2023-10-19 10h27.22.195343 +0900,
blue,red,left,0,,,,,1,8,17,6,338.53276800000094,,,,,,,,,,,,,,,,,,,,,,,,,,,,,,,,,,338.52044750000096,338.53276800000094,338.53276800000094,338.53276800000094,338.53276800000094,338.63292530000035,339.0168609000011,left,1,0.4725252000007458,None,,,,,,,,,B68,002,2023-10-19_10h27.14.450,stroopv1,2023.2.3,59.97005095671101,2023-10-19 10h27.22.195343 +0900,
red,blue,right,0,,,,,2,0,18,2,339.03320500000154,,,,,,,,,,,,,,,,,,,,,,,,,,,,,,,,,,339.0207379000003,339.03320500000154,339.03320500000154,339.03320500000154,339.03320500000154,339.1333313000014,339.76749930000005,right,1,0.7235335999994277,None,,,,,,,,,B68,002,2023-10-19_10h27.14.450,stroopv1,2023.2.3,59.97005095671101,2023-10-19 10h27.22.195343 +0900,
blue,blue,right,1,,,,,2,1,19,8,339.78390990000116,,,,,,,,,,,,,,,,,,,,,,,,,,,,,,,,,,339.7712167000009,339.78390990000116,339.78390990000116,339.78390990000116,339.78390990000116,339.8840015000005,340.36806419999994,right,1,0.5808362000007037,None,,,,,,,,,B68,002,2023-10-19_10h27.14.450,stroopv1,2023.2.3,59.97005095671101,2023-10-19 10h27.22.195343 +0900,
green,green,down,1,,,,,2,2,20,4,340.38444210000125,,,,,,,,,,,,,,,,,,,,,,,,,,,,,,,,,,340.3719217000016,340.38444210000125,340.38444210000125,340.38444210000125,340.38444210000125,340.48452400000133,340.9685683000007,down,1,0.5723314999995637,None,,,,,,,,,B68,002,2023-10-19_10h27.14.450,stroopv1,2023.2.3,59.97005095671101,2023-10-19 10h27.22.195343 +0900,
green,red,left,0,,,,,2,3,21,3,340.9849629,,,,,,,,,,,,,,,,,,,,,,,,,,,,,,,,,,340.9724076000002,340.9849629,340.9849629,340.9849629,340.9849629,341.0850328000015,341.6860942000003,left,1,0.6923884000007092,None,,,,,,,,,B68,002,2023-10-19_10h27.14.450,stroopv1,2023.2.3,59.97005095671101,2023-10-19 10h27.22.195343 +0900,
red,green,down,0,,,,,2,4,22,1,341.70226320000074,,,,,,,,,,,,,,,,,,,,,,,,,,,,,,,,,,341.69004980000136,341.70226320000074,341.70226320000074,341.70226320000074,341.70226320000074,341.80237670000133,343.37088500000027,down,1,1.6544407000001229,None,,,,,,,,,B68,002,2023-10-19_10h27.14.450,stroopv1,2023.2.3,59.97005095671101,2023-10-19 10h27.22.195343 +0900,
red,red,left,1,,,,,2,5,23,0,343.3871013000007,,,,,,,,,,,,,,,,,,,,,,,,,,,,,,,,,,343.37517320000006,343.3871013000007,343.3871013000007,343.3871013000007,343.3871013000007,343.48722050000106,344.1716111000005,left,1,0.7699314999990747,None,,,,,,,,,B68,002,2023-10-19_10h27.14.450,stroopv1,2023.2.3,59.97005095671101,2023-10-19 10h27.22.195343 +0900,
green,blue,right,0,,,,,2,6,24,5,344.1878121000009,,,,,,,,,,,,,,,,,,,,,,,,,,,,,,,,,,344.17568250000113,344.1878121000009,344.1878121000009,344.1878121000009,344.1878121000009,344.2879361000014,344.83877700000085,right,1,0.6409861000011006,None,,,,,,,,,B68,002,2023-10-19_10h27.14.450,stroopv1,2023.2.3,59.97005095671101,2023-10-19 10h27.22.195343 +0900,
blue,green,down,0,,,,,2,7,25,7,344.8550490000016,,,,,,,,,,,,,,,,,,,,,,,,,,,,,,,,,,344.8426059000012,344.8550490000016,344.8550490000016,344.8550490000016,344.8550490000016,344.95519610000156,345.98977510000077,down,1,1.1259155999996437,None,,,,,,,,,B68,002,2023-10-19_10h27.14.450,stroopv1,2023.2.3,59.97005095671101,2023-10-19 10h27.22.195343 +0900,
blue,red,left,0,,,,,2,8,26,6,346.00611560000107,,,,,,,,,,,,,,,,,,,,,,,,,,,,,,,,,,345.99356420000004,346.00611560000107,346.00611560000107,346.00611560000107,346.00611560000107,346.10622909999984,347.0409365000014,left,1,1.0313769000003958,None,,,,,,,,,B68,002,2023-10-19_10h27.14.450,stroopv1,2023.2.3,59.97005095671101,2023-10-19 10h27.22.195343 +0900,
red,blue,right,0,,,,,3,0,27,2,347.0570220999998,,,,,,,,,,,,,,,,,,,,,,,,,,,,,,,,,,347.04506949999995,347.0570220999998,347.0570220999998,347.0570220999998,347.0570220999998,347.1571713000012,347.9581453999999,right,1,0.8924616999993304,None,,,,,,,,,B68,002,2023-10-19_10h27.14.450,stroopv1,2023.2.3,59.97005095671101,2023-10-19 10h27.22.195343 +0900,
green,green,down,1,,,,,3,1,28,4,347.974500100001,,,,,,,,,,,,,,,,,,,,,,,,,,,,,,,,,,347.96199420000085,347.974500100001,347.974500100001,347.974500100001,347.974500100001,348.0747001,348.72562330000073,down,1,0.7424362000001565,None,,,,,,,,,B68,002,2023-10-19_10h27.14.450,stroopv1,2023.2.3,59.97005095671101,2023-10-19 10h27.22.195343 +0900,
blue,blue,right,1,,,,,3,2,29,8,348.74189260000094,,,,,,,,,,,,,,,,,,,,,,,,,,,,,,,,,,348.7294662000004,348.74189260000094,348.74189260000094,348.74189260000094,348.74189260000094,348.8419724000014,349.67654270000094,right,1,0.9189060000007885,None,,,,,,,,,B68,002,2023-10-19_10h27.14.450,stroopv1,2023.2.3,59.97005095671101,2023-10-19 10h27.22.195343 +0900,
blue,green,down,0,,,,,3,3,30,7,349.69271520000075,,,,,,,,,,,,,,,,,,,,,,,,,,,,,,,,,,349.68044220000047,349.69271520000075,349.69271520000075,349.69271520000075,349.69271520000075,349.7928299000014,350.91101030000027,down,1,1.2168727000007493,None,,,,,,,,,B68,002,2023-10-19_10h27.14.450,stroopv1,2023.2.3,59.97005095671101,2023-10-19 10h27.22.195343 +0900,
green,red,left,0,,,,,3,4,31,3,350.92714610000075,,,,,,,,,,,,,,,,,,,,,,,,,,,,,,,,,,350.91509399999995,350.92714610000075,350.92714610000075,350.92714610000075,350.92714610000075,351.02729460000046,352.3288775000001,left,1,1.3897386999997252,None,,,,,,,,,B68,002,2023-10-19_10h27.14.450,stroopv1,2023.2.3,59.97005095671101,2023-10-19 10h27.22.195343 +0900,
red,green,down,0,,,,,3,5,32,1,352.34511310000016,,,,,,,,,,,,,,,,,,,,,,,,,,,,,,,,,,352.33273499999996,352.34511310000016,352.34511310000016,352.34511310000016,352.34511310000016,352.4452276000011,355.54831540000123,down,1,3.188027599999259,None,,,,,,,,,B68,002,2023-10-19_10h27.14.450,stroopv1,2023.2.3,59.97005095671101,2023-10-19 10h27.22.195343 +0900,
green,blue,right,0,,,,,3,6,33,5,355.5646671000013,,,,,,,,,,,,,,,,,,,,,,,,,,,,,,,,,,355.55208140000104,355.5646671000013,355.5646671000013,355.5646671000013,355.5646671000013,355.66477440000017,356.33236840000063,right,1,0.7528301999991527,None,,,,,,,,,B68,002,2023-10-19_10h27.14.450,stroopv1,2023.2.3,59.97005095671101,2023-10-19 10h27.22.195343 +0900,
blue,red,left,0,,,,,3,7,34,6,356.3486909000003,,,,,,,,,,,,,,,,,,,,,,,,,,,,,,,,,,356.3361724000006,356.3486909000003,356.3486909000003,356.3486909000003,356.3486909000003,356.44887050000034,357.0000129,left,1,0.6405704999997397,None,,,,,,,,,B68,002,2023-10-19_10h27.14.450,stroopv1,2023.2.3,59.97005095671101,2023-10-19 10h27.22.195343 +0900,
red,red,left,1,,,,,3,8,35,0,357.0163635000008,,,,,,,,,,,,,,,,,,,,,,,,,,,,,,,,,,357.00378080000155,357.0163635000008,357.0163635000008,357.0163635000008,357.0163635000008,357.1162989000004,357.48354930000096,left,1,0.45230629999969096,None,,,,,,,,,B68,002,2023-10-19_10h27.14.450,stroopv1,2023.2.3,59.97005095671101,2023-10-19 10h27.22.195343 +0900,
blue,green,down,0,,,,,4,0,36,7,357.49974570000086,,,,,,,,,,,,,,,,,,,,,,,,,,,,,,,,,,357.4874396000014,357.49974570000086,357.49974570000086,357.49974570000086,357.49974570000086,357.59981359999983,358.2341597000013,right,0,0.7213886000008642,None,,,,,,,,,B68,002,2023-10-19_10h27.14.450,stroopv1,2023.2.3,59.97005095671101,2023-10-19 10h27.22.195343 +0900,
green,red,left,0,,,,,4,1,37,3,358.25035800000114,,,,,,,,,,,,,,,,,,,,,,,,,,,,,,,,,,358.2379884000002,358.25035800000114,358.25035800000114,358.25035800000114,358.25035800000114,358.35051720000047,359.1238407000001,left,1,0.8668188999999984,None,,,,,,,,,B68,002,2023-10-19_10h27.14.450,stroopv1,2023.2.3,59.97005095671101,2023-10-19 10h27.22.195343 +0900,
red,green,down,0,,,,,4,2,38,1,359.1401970000006,,,,,,,,,,,,,,,,,,,,,,,,,,,,,,,,,,359.12766740000006,359.1401970000006,359.1401970000006,359.1401970000006,359.1401970000006,359.2402649000014,360.3416864999999,down,1,1.1929063999996288,None,,,,,,,,,B68,002,2023-10-19_10h27.14.450,stroopv1,2023.2.3,59.97005095671101,2023-10-19 10h27.22.195343 +0900,
blue,blue,right,1,,,,,4,3,39,8,360.3581541000003,,,,,,,,,,,,,,,,,,,,,,,,,,,,,,,,,,360.3454829000002,360.3581541000003,360.3581541000003,360.3581541000003,360.3581541000003,360.4580528000006,360.9257895999999,right,1,0.5670245999990584,None,,,,,,,,,B68,002,2023-10-19_10h27.14.450,stroopv1,2023.2.3,59.97005095671101,2023-10-19 10h27.22.195343 +0900,
blue,red,left,0,,,,,4,4,40,6,360.9418450000012,,,,,,,,,,,,,,,,,,,,,,,,,,,,,,,,,,360.929785100001,360.9418450000012,360.9418450000012,360.9418450000012,360.9418450000012,361.0419384000015,361.8097508999999,left,1,0.8634053999994649,None,,,,,,,,,B68,002,2023-10-19_10h27.14.450,stroopv1,2023.2.3,59.97005095671101,2023-10-19 10h27.22.195343 +0900,
red,blue,right,0,,,,,4,5,41,2,361.825937900001,,,,,,,,,,,,,,,,,,,,,,,,,,,,,,,,,,361.8138781000016,361.825937900001,361.825937900001,361.825937900001,361.825937900001,361.9260574,362.62713710000025,right,1,0.7955863000006502,None,,,,,,,,,B68,002,2023-10-19_10h27.14.450,stroopv1,2023.2.3,59.97005095671101,2023-10-19 10h27.22.195343 +0900,
green,green,down,1,,,,,4,6,42,4,362.6433050000014,,,,,,,,,,,,,,,,,,,,,,,,,,,,,,,,,,362.63124270000117,362.6433050000014,362.6433050000014,362.6433050000014,362.6433050000014,362.74345110000104,363.37764419999985,down,1,0.7297395000005054,None,,,,,,,,,B68,002,2023-10-19_10h27.14.450,stroopv1,2023.2.3,59.97005095671101,2023-10-19 10h27.22.195343 +0900,
green,blue,right,0,,,,,4,7,43,5,363.3940194000006,,,,,,,,,,,,,,,,,,,,,,,,,,,,,,,,,,363.38147879999997,363.3940194000006,363.3940194000006,363.3940194000006,363.3940194000006,363.49412350000057,364.02826240000104,left,0,0.6188858000004984,None,,,,,,,,,B68,002,2023-10-19_10h27.14.450,stroopv1,2023.2.3,59.97005095671101,2023-10-19 10h27.22.195343 +0900,
red,red,left,1,,,,,4,8,44,0,364.0445557000003,,,,,,,,,,,,,,,,,,,,,,,,,,,,,,,,,,364.032135200001,364.0445557000003,364.0445557000003,364.0445557000003,364.0445557000003,364.1446704000009,366.2804498000005,left,1,2.2249578000009933,None,,,,,,,,,B68,002,2023-10-19_10h27.14.450,stroopv1,2023.2.3,59.97005095671101,2023-10-19 10h27.22.195343 +0900,
green,red,left,0,,,,,5,0,45,3,366.2966288000007,,,,,,,,,,,,,,,,,,,,,,,,,,,,,,,,,,366.2842838000015,366.2966288000007,366.2966288000007,366.2966288000007,366.2966288000007,366.39669219999996,367.1311669000006,left,1,0.8200488000002224,None,,,,,,,,,B68,002,2023-10-19_10h27.14.450,stroopv1,2023.2.3,59.97005095671101,2023-10-19 10h27.22.195343 +0900,
blue,red,left,0,,,,,5,1,46,6,367.1473326000014,,,,,,,,,,,,,,,,,,,,,,,,,,,,,,,,,,367.1352973000012,367.1473326000014,367.1473326000014,367.1473326000014,367.1473326000014,367.24746010000126,367.6983301,left,1,0.5454573000006349,None,,,,,,,,,B68,002,2023-10-19_10h27.14.450,stroopv1,2023.2.3,59.97005095671101,2023-10-19 10h27.22.195343 +0900,
red,red,left,1,,,,,5,2,47,0,367.714540500001,,,,,,,,,,,,,,,,,,,,,,,,,,,,,,,,,,367.7022573000013,367.714540500001,367.714540500001,367.714540500001,367.714540500001,367.8146652000014,368.1987831000006,left,1,0.4745500999997603,None,,,,,,,,,B68,002,2023-10-19_10h27.14.450,stroopv1,2023.2.3,59.97005095671101,2023-10-19 10h27.22.195343 +0900,
red,blue,right,0,,,,,5,3,48,2,368.21498600000086,,,,,,,,,,,,,,,,,,,,,,,,,,,,,,,,,,368.2027471000001,368.21498600000086,368.21498600000086,368.21498600000086,368.21498600000086,368.31509520000145,369.5333840000003,right,1,1.3016929999994318,None,,,,,,,,,B68,002,2023-10-19_10h27.14.450,stroopv1,2023.2.3,59.97005095671101,2023-10-19 10h27.22.195343 +0900,
blue,blue,right,1,,,,,5,4,49,8,369.5495409000014,,,,,,,,,,,,,,,,,,,,,,,,,,,,,,,,,,369.5372317000001,369.5495409000014,369.5495409000014,369.5495409000014,369.5495409000014,369.64982770000097,370.18374120000044,right,1,0.6239148000004207,None,,,,,,,,,B68,002,2023-10-19_10h27.14.450,stroopv1,2023.2.3,59.97005095671101,2023-10-19 10h27.22.195343 +0900,
green,blue,right,0,,,,,5,5,50,5,370.2000955000003,,,,,,,,,,,,,,,,,,,,,,,,,,,,,,,,,,370.1875598000006,370.2000955000003,370.2000955000003,370.2000955000003,370.2000955000003,370.3002110000016,370.8010279000009,right,1,0.5972801000007166,None,,,,,,,,,B68,002,2023-10-19_10h27.14.450,stroopv1,2023.2.3,59.97005095671101,2023-10-19 10h27.22.195343 +0900,
green,green,down,1,,,,,5,6,51,4,370.8173067000007,,,,,,,,,,,,,,,,,,,,,,,,,,,,,,,,,,370.8048574000004,370.8173067000007,370.8173067000007,370.8173067000007,370.8173067000007,370.9173956000013,371.41819399999986,down,1,0.5880287999989378,None,,,,,,,,,B68,002,2023-10-19_10h27.14.450,stroopv1,2023.2.3,59.97005095671101,2023-10-19 10h27.22.195343 +0900,
red,green,down,0,,,,,5,7,52,1,371.43453039999986,,,,,,,,,,,,,,,,,,,,,,,,,,,,,,,,,,371.4219881000008,371.43453039999986,371.43453039999986,371.43453039999986,371.43453039999986,371.53461980000066,372.46921740000107,down,1,1.0262762999991537,None,,,,,,,,,B68,002,2023-10-19_10h27.14.450,stroopv1,2023.2.3,59.97005095671101,2023-10-19 10h27.22.195343 +0900,
blue,green,down,0,,,,,5,8,53,7,372.48546290000013,,,,,,,,,,,,,,,,,,,,,,,,,,,,,,,,,,372.47304460000123,372.48546290000013,372.48546290000013,372.48546290000013,372.48546290000013,372.58558820000144,373.36994910000067,down,1,0.8713459999999031,None,,,,,,,,,B68,002,2023-10-19_10h27.14.450,stroopv1,2023.2.3,59.97005095671101,2023-10-19 10h27.22.195343 +0900,
blue,blue,right,1,,,,,6,0,54,8,373.3862759000003,,,,,,,,,,,,,,,,,,,,,,,,,,,,,,,,,,373.3737871000012,373.3862759000003,373.3862759000003,373.3862759000003,373.3862759000003,373.4864557000001,374.0707161999999,right,1,0.6751782999999705,None,,,,,,,,,B68,002,2023-10-19_10h27.14.450,stroopv1,2023.2.3,59.97005095671101,2023-10-19 10h27.22.195343 +0900,
green,green,down,1,,,,,6,1,55,4,374.08687030000146,,,,,,,,,,,,,,,,,,,,,,,,,,,,,,,,,,374.07495200000085,374.08687030000146,374.08687030000146,374.08687030000146,374.08687030000146,374.1869815000009,374.6712378000011,down,1,0.5825568999989628,None,,,,,,,,,B68,002,2023-10-19_10h27.14.450,stroopv1,2023.2.3,59.97005095671101,2023-10-19 10h27.22.195343 +0900,
red,green,down,0,,,,,6,2,56,1,374.6874394000006,,,,,,,,,,,,,,,,,,,,,,,,,,,,,,,,,,374.67510670000047,374.6874394000006,374.6874394000006,374.6874394000006,374.6874394000006,374.78754370000024,375.32180420000077,down,1,0.621848200000386,None,,,,,,,,,B68,002,2023-10-19_10h27.14.450,stroopv1,2023.2.3,59.97005095671101,2023-10-19 10h27.22.195343 +0900,
green,red,left,0,,,,,6,3,57,3,375.33805080000093,,,,,,,,,,,,,,,,,,,,,,,,,,,,,,,,,,375.32587870000134,375.33805080000093,375.33805080000093,375.33805080000093,375.33805080000093,375.4381033999998,376.5562523000008,left,1,1.2031244999998307,None,,,,,,,,,B68,002,2023-10-19_10h27.14.450,stroopv1,2023.2.3,59.97005095671101,2023-10-19 10h27.22.195343 +0900,
red,red,left,1,,,,,6,4,58,0,376.57245839999996,,,,,,,,,,,,,,,,,,,,,,,,,,,,,,,,,,376.5605841000015,376.57245839999996,376.57245839999996,376.57245839999996,376.57245839999996,376.67256220000127,377.1068171000006,left,1,0.5288540000001376,None,,,,,,,,,B68,002,2023-10-19_10h27.14.450,stroopv1,2023.2.3,59.97005095671101,2023-10-19 10h27.22.195343 +0900,
blue,red,left,0,,,,,6,5,59,6,377.12292230000094,,,,,,,,,,,,,,,,,,,,,,,,,,,,,,,,,,377.1108671000002,377.12292230000094,377.12292230000094,377.12292230000094,377.12292230000094,377.22306930000013,377.65724860000046,left,1,0.5225487000006979,None,,,,,,,,,B68,002,2023-10-19_10h27.14.450,stroopv1,2023.2.3,59.97005095671101,2023-10-19 10h27.22.195343 +0900,
blue,green,down,0,,,,,6,6,60,7,377.67347000000154,,,,,,,,,,,,,,,,,,,,,,,,,,,,,,,,,,377.66115530000025,377.67347000000154,377.67347000000154,377.67347000000154,377.67347000000154,377.77353070000026,379.5421632000016,down,1,1.8597086000008858,None,,,,,,,,,B68,002,2023-10-19_10h27.14.450,stroopv1,2023.2.3,59.97005095671101,2023-10-19 10h27.22.195343 +0900,
green,blue,right,0,,,,,6,7,61,5,379.55845880000015,,,,,,,,,,,,,,,,,,,,,,,,,,,,,,,,,,379.5459924000006,379.55845880000015,379.55845880000015,379.55845880000015,379.55845880000015,379.6585518000011,380.35956630000146,right,1,0.7909784000003128,None,,,,,,,,,B68,002,2023-10-19_10h27.14.450,stroopv1,2023.2.3,59.97005095671101,2023-10-19 10h27.22.195343 +0900,
red,blue,right,0,,,,,6,8,62,2,380.37589320000006,,,,,,,,,,,,,,,,,,,,,,,,,,,,,,,,,,380.3633441000002,380.37589320000006,380.37589320000006,380.37589320000006,380.37589320000006,380.47598030000154,381.2770065000004,right,1,0.8854887999987113,None,,,,,,,,,B68,002,2023-10-19_10h27.14.450,stroopv1,2023.2.3,59.97005095671101,2023-10-19 10h27.22.195343 +0900,
blue,red,left,0,,,,,7,0,63,6,381.2933472000004,,,,,,,,,,,,,,,,,,,,,,,,,,,,,,,,,,381.2808939000006,381.2933472000004,381.2933472000004,381.2933472000004,381.2933472000004,381.3934199000014,385.21394860000146,left,1,3.903931400000147,None,,,,,,,,,B68,002,2023-10-19_10h27.14.450,stroopv1,2023.2.3,59.97005095671101,2023-10-19 10h27.22.195343 +0900,
red,blue,right,0,,,,,7,1,64,2,385.23019209999984,,,,,,,,,,,,,,,,,,,,,,,,,,,,,,,,,,385.21772630000123,385.23019209999984,385.23019209999984,385.23019209999984,385.23019209999984,385.33028490000106,387.46589180000046,right,1,2.2225554999986343,None,,,,,,,,,B68,002,2023-10-19_10h27.14.450,stroopv1,2023.2.3,59.97005095671101,2023-10-19 10h27.22.195343 +0900,
red,red,left,1,,,,,7,2,65,0,387.48221080000076,,,,,,,,,,,,,,,,,,,,,,,,,,,,,,,,,,387.46971889999986,387.48221080000076,387.48221080000076,387.48221080000076,387.48221080000076,387.58238060000076,388.10022050000043,left,1,0.6113905999991402,None,,,,,,,,,B68,002,2023-10-19_10h27.14.450,stroopv1,2023.2.3,59.97005095671101,2023-10-19 10h27.22.195343 +0900,
red,green,down,0,,,,,7,3,66,1,388.1165204000008,,,,,,,,,,,,,,,,,,,,,,,,,,,,,,,,,,388.10404390000076,388.1165204000008,388.1165204000008,388.1165204000008,388.1165204000008,388.21646599999985,388.95051330000024,down,1,0.8242444000006799,None,,,,,,,,,B68,002,2023-10-19_10h27.14.450,stroopv1,2023.2.3,59.97005095671101,2023-10-19 10h27.22.195343 +0900,
green,green,down,1,,,,,7,4,67,4,388.9668679000006,,,,,,,,,,,,,,,,,,,,,,,,,,,,,,,,,,388.9543269000005,388.9668679000006,388.9668679000006,388.9668679000006,388.9668679000006,389.0669632000008,389.5677831000012,down,1,0.5978161000002729,None,,,,,,,,,B68,002,2023-10-19_10h27.14.450,stroopv1,2023.2.3,59.97005095671101,2023-10-19 10h27.22.195343 +0900,
green,blue,right,0,,,,,7,5,68,5,389.5840904000015,,,,,,,,,,,,,,,,,,,,,,,,,,,,,,,,,,389.5715842999998,389.5840904000015,389.5840904000015,389.5840904000015,389.5840904000015,389.68420810000134,390.65221270000075,right,1,1.0530184999988705,None,,,,,,,,,B68,002,2023-10-19_10h27.14.450,stroopv1,2023.2.3,59.97005095671101,2023-10-19 10h27.22.195343 +0900,
blue,blue,right,1,,,,,7,6,69,8,390.66841920000115,,,,,,,,,,,,,,,,,,,,,,,,,,,,,,,,,,390.65654130000075,390.66841920000115,390.66841920000115,390.66841920000115,390.66841920000115,390.7684816000001,391.152640100001,right,1,0.48097170000073675,None,,,,,,,,,B68,002,2023-10-19_10h27.14.450,stroopv1,2023.2.3,59.97005095671101,2023-10-19 10h27.22.195343 +0900,
green,red,left,0,,,,,7,7,70,3,391.16884070000015,,,,,,,,,,,,,,,,,,,,,,,,,,,,,,,,,,391.15688630000113,391.16884070000015,391.16884070000015,391.16884070000015,391.16884070000015,391.2689524000016,391.719815800001,left,1,0.5406770999998116,None,,,,,,,,,B68,002,2023-10-19_10h27.14.450,stroopv1,2023.2.3,59.97005095671101,2023-10-19 10h27.22.195343 +0900,
blue,green,down,0,,,,,7,8,71,7,391.73598180000045,,,,,,,,,,,,,,,,,,,,,,,,,,,,,,,,,,391.7240404000004,391.73598180000045,391.73598180000045,391.73598180000045,391.73598180000045,391.83613700000024,393.0377984000006,down,1,1.3010952999993606,None,,,,,,,,,B68,002,2023-10-19_10h27.14.450,stroopv1,2023.2.3,59.97005095671101,2023-10-19 10h27.22.195343 +0900,
green,red,left,0,,,,,8,0,72,3,393.05382720000125,,,,,,,,,,,,,,,,,,,,,,,,,,,,,,,,,,393.04180350000024,393.05382720000125,393.05382720000125,393.05382720000125,393.05382720000125,393.15401850000126,393.92184989999987,left,1,0.8633031999997911,None,,,,,,,,,B68,002,2023-10-19_10h27.14.450,stroopv1,2023.2.3,59.97005095671101,2023-10-19 10h27.22.195343 +0900,
green,blue,right,0,,,,,8,1,73,5,393.93794870000056,,,,,,,,,,,,,,,,,,,,,,,,,,,,,,,,,,393.9258439000005,393.93794870000056,393.93794870000056,393.93794870000056,393.93794870000056,394.03811020000103,395.3729352999999,right,1,1.4196590999999898,None,,,,,,,,,B68,002,2023-10-19_10h27.14.450,stroopv1,2023.2.3,59.97005095671101,2023-10-19 10h27.22.195343 +0900,
blue,blue,right,1,,,,,8,2,74,8,395.3893130000015,,,,,,,,,,,,,,,,,,,,,,,,,,,,,,,,,,395.3767549000004,395.3893130000015,395.3893130000015,395.3893130000015,395.3893130000015,395.48936390000017,396.0902601000016,right,1,0.6878674999989016,None,,,,,,,,,B68,002,2023-10-19_10h27.14.450,stroopv1,2023.2.3,59.97005095671101,2023-10-19 10h27.22.195343 +0900,
green,green,down,1,,,,,8,3,75,4,396.10658550000153,,,,,,,,,,,,,,,,,,,,,,,,,,,,,,,,,,396.09404670000004,396.10658550000153,396.10658550000153,396.10658550000153,396.10658550000153,396.2066769000012,398.55928680000034,down,1,2.4509870000001683,None,,,,,,,,,B68,002,2023-10-19_10h27.14.450,stroopv1,2023.2.3,59.97005095671101,2023-10-19 10h27.22.195343 +0900,
red,blue,right,0,,,,,8,4,76,2,398.57543480000095,,,,,,,,,,,,,,,,,,,,,,,,,,,,,,,,,,398.5632989000005,398.57543480000095,398.57543480000095,398.57543480000095,398.57543480000095,398.6755670000002,399.6434093000007,right,1,1.053559199999654,None,,,,,,,,,B68,002,2023-10-19_10h27.14.450,stroopv1,2023.2.3,59.97005095671101,2023-10-19 10h27.22.195343 +0900,
red,red,left,1,,,,,8,5,77,0,399.6597676000001,,,,,,,,,,,,,,,,,,,,,,,,,,,,,,,,,,399.64723870000125,399.6597676000001,399.6597676000001,399.6597676000001,399.6597676000001,399.7598814000012,400.2607929000005,left,1,0.5930931000002602,None,,,,,,,,,B68,002,2023-10-19_10h27.14.450,stroopv1,2023.2.3,59.97005095671101,2023-10-19 10h27.22.195343 +0900,
blue,green,down,0,,,,,8,6,78,7,400.27695720000156,,,,,,,,,,,,,,,,,,,,,,,,,,,,,,,,,,400.26469840000027,400.27695720000156,400.27695720000156,400.27695720000156,400.27695720000156,400.3771052000011,401.22828950000076,down,1,0.9356967000003351,None,,,,,,,,,B68,002,2023-10-19_10h27.14.450,stroopv1,2023.2.3,59.97005095671101,2023-10-19 10h27.22.195343 +0900,
red,green,down,0,,,,,8,7,79,1,401.24451390000104,,,,,,,,,,,,,,,,,,,,,,,,,,,,,,,,,,401.2324615000016,401.24451390000104,401.24451390000104,401.24451390000104,401.24451390000104,401.3446005000005,401.7288245,down,1,0.48042350000105216,None,,,,,,,,,B68,002,2023-10-19_10h27.14.450,stroopv1,2023.2.3,59.97005095671101,2023-10-19 10h27.22.195343 +0900,
blue,red,left,0,,,,,8,8,80,6,401.7449647000012,,,,,,,,,,,,,,,,,,,,,,,,,,,,,,,,,,401.73278310000023,401.7449647000012,401.7449647000012,401.7449647000012,401.7449647000012,401.8450378000016,403.19658250000066,left,1,1.4361062999996648,None,,,,,,,,,B68,002,2023-10-19_10h27.14.450,stroopv1,2023.2.3,59.97005095671101,2023-10-19 10h27.22.195343 +0900,
red,red,left,1,,,,,9,0,81,0,403.21294130000024,,,,,,,,,,,,,,,,,,,,,,,,,,,,,,,,,,403.2004056000005,403.21294130000024,403.21294130000024,403.21294130000024,403.21294130000024,403.3130605000006,403.86386029999994,left,1,0.6398821000002499,None,,,,,,,,,B68,002,2023-10-19_10h27.14.450,stroopv1,2023.2.3,59.97005095671101,2023-10-19 10h27.22.195343 +0900,
blue,blue,right,1,,,,,9,1,82,8,403.88020959999994,,,,,,,,,,,,,,,,,,,,,,,,,,,,,,,,,,403.86766590000116,403.88020959999994,403.88020959999994,403.88020959999994,403.88020959999994,403.98030220000146,404.9482168000013,right,1,1.0609775000011723,None,,,,,,,,,B68,002,2023-10-19_10h27.14.450,stroopv1,2023.2.3,59.97005095671101,2023-10-19 10h27.22.195343 +0900,
blue,green,down,0,,,,,9,2,83,7,404.9645048000002,,,,,,,,,,,,,,,,,,,,,,,,,,,,,,,,,,404.95199310000135,404.9645048000002,404.9645048000002,404.9645048000002,404.9645048000002,405.0646159000007,406.19933459999993,down,1,1.2245383999998012,None,,,,,,,,,B68,002,2023-10-19_10h27.14.450,stroopv1,2023.2.3,59.97005095671101,2023-10-19 10h27.22.195343 +0900,
red,green,down,0,,,,,9,3,84,1,406.21560339999996,,,,,,,,,,,,,,,,,,,,,,,,,,,,,,,,,,406.2031259000014,406.21560339999996,406.21560339999996,406.21560339999996,406.21560339999996,406.3159473000014,407.13373200000024,down,1,0.9024623999994219,None,,,,,,,,,B68,002,2023-10-19_10h27.14.450,stroopv1,2023.2.3,59.97005095671101,2023-10-19 10h27.22.195343 +0900,
green,green,down,1,,,,,9,4,85,4,407.14986510000017,,,,,,,,,,,,,,,,,,,,,,,,,,,,,,,,,,407.1377155000009,407.14986510000017,407.14986510000017,407.14986510000017,407.14986510000017,407.25005000000056,407.7007730000005,down,1,0.5432435999991867,None,,,,,,,,,B68,002,2023-10-19_10h27.14.450,stroopv1,2023.2.3,59.97005095671101,2023-10-19 10h27.22.195343 +0900,
blue,red,left,0,,,,,9,5,86,6,407.71694390000084,,,,,,,,,,,,,,,,,,,,,,,,,,,,,,,,,,407.7047328000008,407.71694390000084,407.71694390000084,407.71694390000084,407.71694390000084,407.8170889000012,408.3347087000002,left,1,0.6160252000008768,None,,,,,,,,,B68,002,2023-10-19_10h27.14.450,stroopv1,2023.2.3,59.97005095671101,2023-10-19 10h27.22.195343 +0900,
green,red,left,0,,,,,9,6,87,3,408.3508675000012,,,,,,,,,,,,,,,,,,,,,,,,,,,,,,,,,,408.33861010000146,408.3508675000012,408.3508675000012,408.3508675000012,408.3508675000012,408.4509882000002,408.8185041000015,left,1,0.4625023999997211,None,,,,,,,,,B68,002,2023-10-19_10h27.14.450,stroopv1,2023.2.3,59.97005095671101,2023-10-19 10h27.22.195343 +0900,
red,blue,right,0,,,,,9,7,88,2,408.83464230000027,,,,,,,,,,,,,,,,,,,,,,,,,,,,,,,,,,408.82284750000144,408.83464230000027,408.83464230000027,408.83464230000027,408.83464230000027,408.9347557000001,409.46902279999995,right,1,0.618587100001605,None,,,,,,,,,B68,002,2023-10-19_10h27.14.450,stroopv1,2023.2.3,59.97005095671101,2023-10-19 10h27.22.195343 +0900,
green,blue,right,0,,,,,9,8,89,5,409.4852187000015,,,,,,,,,,,,,,,,,,,,,,,,,,,,,,,,,,409.4729883,409.4852187000015,409.4852187000015,409.4852187000015,409.4852187000015,409.5853134000008,410.2196617999998,right,1,0.7195357000000513,None,,,,,,,,,B68,002,2023-10-19_10h27.14.450,stroopv1,2023.2.3,59.97005095671101,2023-10-19 10h27.22.195343 +0900,
blue,blue,right,1,,,,,10,0,90,8,410.2358839000008,,,,,,,,,,,,,,,,,,,,,,,,,,,,,,,,,,410.2234817000008,410.2358839000008,410.2358839000008,410.2358839000008,410.2358839000008,410.3359751000007,410.6868413000011,right,1,0.4492260000006354,None,,,,,,,,,B68,002,2023-10-19_10h27.14.450,stroopv1,2023.2.3,59.97005095671101,2023-10-19 10h27.22.195343 +0900,
red,green,down,0,,,,,10,1,91,1,410.7029996000001,,,,,,,,,,,,,,,,,,,,,,,,,,,,,,,,,,410.6908097000014,410.7029996000001,410.7029996000001,410.7029996000001,410.7029996000001,410.8030593000003,411.68751350000093,down,1,0.9737936000001355,None,,,,,,,,,B68,002,2023-10-19_10h27.14.450,stroopv1,2023.2.3,59.97005095671101,2023-10-19 10h27.22.195343 +0900,
red,blue,right,0,,,,,10,2,92,2,411.70389700000123,,,,,,,,,,,,,,,,,,,,,,,,,,,,,,,,,,411.69135749999987,411.70389700000123,411.70389700000123,411.70389700000123,411.70389700000123,411.8039509000009,412.6718400999998,right,1,0.9655765000006795,None,,,,,,,,,B68,002,2023-10-19_10h27.14.450,stroopv1,2023.2.3,59.97005095671101,2023-10-19 10h27.22.195343 +0900,
green,blue,right,0,,,,,10,3,93,5,412.68804510000155,,,,,,,,,,,,,,,,,,,,,,,,,,,,,,,,,,412.67568070000016,412.68804510000155,412.68804510000155,412.68804510000155,412.68804510000155,412.7882029000011,413.1722211000015,right,1,0.4768057000001136,None,,,,,,,,,B68,002,2023-10-19_10h27.14.450,stroopv1,2023.2.3,59.97005095671101,2023-10-19 10h27.22.195343 +0900,
blue,green,down,0,,,,,10,4,94,7,413.1885211000008,,,,,,,,,,,,,,,,,,,,,,,,,,,,,,,,,,413.17604570000003,413.1885211000008,413.1885211000008,413.1885211000008,413.1885211000008,413.2886440000002,413.9228385000006,down,1,0.7287761000006867,None,,,,,,,,,B68,002,2023-10-19_10h27.14.450,stroopv1,2023.2.3,59.97005095671101,2023-10-19 10h27.22.195343 +0900,
blue,red,left,0,,,,,10,5,95,6,413.9391661000009,,,,,,,,,,,,,,,,,,,,,,,,,,,,,,,,,,413.92668680000133,413.9391661000009,413.9391661000009,413.9391661000009,413.9391661000009,414.0393073000014,414.49012630000107,left,1,0.538304200001221,None,,,,,,,,,B68,002,2023-10-19_10h27.14.450,stroopv1,2023.2.3,59.97005095671101,2023-10-19 10h27.22.195343 +0900,
green,green,down,1,,,,,10,6,96,4,414.50634100000025,,,,,,,,,,,,,,,,,,,,,,,,,,,,,,,,,,414.4945561000004,414.50634100000025,414.50634100000025,414.50634100000025,414.50634100000025,414.6064696000012,415.4575298,down,1,0.9468604000012419,None,,,,,,,,,B68,002,2023-10-19_10h27.14.450,stroopv1,2023.2.3,59.97005095671101,2023-10-19 10h27.22.195343 +0900,
red,red,left,1,,,,,10,7,97,0,415.4738716000011,,,,,,,,,,,,,,,,,,,,,,,,,,,,,,,,,,415.46133890000056,415.4738716000011,415.4738716000011,415.4738716000011,415.4738716000011,415.57399670000086,416.2083923000009,left,1,0.7308200999996188,None,,,,,,,,,B68,002,2023-10-19_10h27.14.450,stroopv1,2023.2.3,59.97005095671101,2023-10-19 10h27.22.195343 +0900,
green,red,left,0,,,,,10,8,98,3,416.2245759000016,,,,,,,,,,,,,,,,,,,,,,,,,,,,,,,,,,416.21218260000023,416.2245759000016,416.2245759000016,416.2245759000016,416.2245759000016,416.32465610000145,416.6752696000003,left,1,0.4445496999996976,None,,,,,,,,,B68,002,2023-10-19_10h27.14.450,stroopv1,2023.2.3,59.97005095671101,2023-10-19 10h27.22.195343 +0900,
red,blue,right,0,,,,,11,0,99,2,416.69162640000104,,,,,,,,,,,,,,,,,,,,,,,,,,,,,,,,,,416.6791954,416.69162640000104,416.69162640000104,416.69162640000104,416.69162640000104,416.79175530000066,417.5426889999999,right,1,0.8416234999986045,None,,,,,,,,,B68,002,2023-10-19_10h27.14.450,stroopv1,2023.2.3,59.97005095671101,2023-10-19 10h27.22.195343 +0900,
blue,blue,right,1,,,,,11,1,100,8,417.559099600001,,,,,,,,,,,,,,,,,,,,,,,,,,,,,,,,,,417.54649849999987,417.559099600001,417.559099600001,417.559099600001,417.559099600001,417.6591920999999,417.976402100001,right,1,0.40570370000023104,None,,,,,,,,,B68,002,2023-10-19_10h27.14.450,stroopv1,2023.2.3,59.97005095671101,2023-10-19 10h27.22.195343 +0900,
green,blue,right,0,,,,,11,2,101,5,417.9927946000007,,,,,,,,,,,,,,,,,,,,,,,,,,,,,,,,,,417.9802251000001,417.9927946000007,417.9927946000007,417.9927946000007,417.9927946000007,418.0929162000011,418.3767802000002,right,1,0.37266749999980675,None,,,,,,,,,B68,002,2023-10-19_10h27.14.450,stroopv1,2023.2.3,59.97005095671101,2023-10-19 10h27.22.195343 +0900,
red,red,left,1,,,,,11,3,102,0,418.3931491000003,,,,,,,,,,,,,,,,,,,,,,,,,,,,,,,,,,418.3806734000009,418.3931491000003,418.3931491000003,418.3931491000003,418.3931491000003,418.493265000001,419.1442794000013,left,1,0.7397486000008939,None,,,,,,,,,B68,002,2023-10-19_10h27.14.450,stroopv1,2023.2.3,59.97005095671101,2023-10-19 10h27.22.195343 +0900,
blue,green,down,0,,,,,11,4,103,7,419.1605390000004,,,,,,,,,,,,,,,,,,,,,,,,,,,,,,,,,,419.14847980000013,419.1605390000004,419.1605390000004,419.1605390000004,419.1605390000004,419.2606112000012,421.3630955000008,down,1,2.1969223999985843,None,,,,,,,,,B68,002,2023-10-19_10h27.14.450,stroopv1,2023.2.3,59.97005095671101,2023-10-19 10h27.22.195343 +0900,
green,red,left,0,,,,,11,5,104,3,421.37919740000143,,,,,,,,,,,,,,,,,,,,,,,,,,,,,,,,,,421.3675275000005,421.37919740000143,421.37919740000143,421.37919740000143,421.37919740000143,421.47923679999985,422.8142678000004,left,1,1.434405500000139,None,,,,,,,,,B68,002,2023-10-19_10h27.14.450,stroopv1,2023.2.3,59.97005095671101,2023-10-19 10h27.22.195343 +0900,
red,green,down,0,,,,,11,6,105,1,422.83044490000066,,,,,,,,,,,,,,,,,,,,,,,,,,,,,,,,,,422.8182818000005,422.83044490000066,422.83044490000066,422.83044490000066,422.83044490000066,422.9305725000013,423.6815684000012,down,1,0.8462784999992436,None,,,,,,,,,B68,002,2023-10-19_10h27.14.450,stroopv1,2023.2.3,59.97005095671101,2023-10-19 10h27.22.195343 +0900,
blue,red,left,0,,,,,11,7,106,6,423.6979229000008,,,,,,,,,,,,,,,,,,,,,,,,,,,,,,,,,,423.68542720000005,423.6979229000008,423.6979229000008,423.6979229000008,423.6979229000008,423.7979808,424.3656662000012,left,1,0.6515421000003698,None,,,,,,,,,B68,002,2023-10-19_10h27.14.450,stroopv1,2023.2.3,59.97005095671101,2023-10-19 10h27.22.195343 +0900,
green,green,down,1,,,,,11,8,107,4,424.38187300000027,,,,,,,,,,,,,,,,,,,,,,,,,,,,,,,,,,424.3699305000009,424.38187300000027,424.38187300000027,424.38187300000027,424.38187300000027,424.4819647000004,425.2498288000006,down,1,0.8636034000010113,None,,,,,,,,,B68,002,2023-10-19_10h27.14.450,stroopv1,2023.2.3,59.97005095671101,2023-10-19 10h27.22.195343 +0900,
blue,blue,right,1,,,,,12,0,108,8,425.2660926000008,,,,,,,,,,,,,,,,,,,,,,,,,,,,,,,,,,425.25365930000044,425.2660926000008,425.2660926000008,425.2660926000008,425.2660926000008,425.3664374,425.88371410000036,right,1,0.6032830999993166,None,,,,,,,,,B68,002,2023-10-19_10h27.14.450,stroopv1,2023.2.3,59.97005095671101,2023-10-19 10h27.22.195343 +0900,
red,green,down,0,,,,,12,1,109,1,425.90012150000075,,,,,,,,,,,,,,,,,,,,,,,,,,,,,,,,,,425.887485700001,425.90012150000075,425.90012150000075,425.90012150000075,425.90012150000075,425.9999977000007,426.8510746000011,down,1,0.9449930999999197,None,,,,,,,,,B68,002,2023-10-19_10h27.14.450,stroopv1,2023.2.3,59.97005095671101,2023-10-19 10h27.22.195343 +0900,
green,red,left,0,,,,,12,2,110,3,426.86739860000125,,,,,,,,,,,,,,,,,,,,,,,,,,,,,,,,,,426.8548857000005,426.86739860000125,426.86739860000125,426.86739860000125,426.86739860000125,426.9675118000014,427.53517590000047,left,1,0.6654161999995267,None,,,,,,,,,B68,002,2023-10-19_10h27.14.450,stroopv1,2023.2.3,59.97005095671101,2023-10-19 10h27.22.195343 +0900,
blue,red,left,0,,,,,12,3,111,6,427.5513426000016,,,,,,,,,,,,,,,,,,,,,,,,,,,,,,,,,,427.53931530000045,427.5513426000016,427.5513426000016,427.5513426000016,427.5513426000016,427.65147380000053,428.1022945000004,left,1,0.5415971999991598,None,,,,,,,,,B68,002,2023-10-19_10h27.14.450,stroopv1,2023.2.3,59.97005095671101,2023-10-19 10h27.22.195343 +0900,
blue,green,down,0,,,,,12,4,112,7,428.1185419000012,,,,,,,,,,,,,,,,,,,,,,,,,,,,,,,,,,428.106480800001,428.1185419000012,428.1185419000012,428.1185419000012,428.1185419000012,428.21863200000007,429.01981239999986,down,1,0.8864436999992904,None,,,,,,,,,B68,002,2023-10-19_10h27.14.450,stroopv1,2023.2.3,59.97005095671101,2023-10-19 10h27.22.195343 +0900,
red,blue,right,0,,,,,12,5,113,2,429.0360390000005,,,,,,,,,,,,,,,,,,,,,,,,,,,,,,,,,,429.0236953000003,429.0360390000005,429.0360390000005,429.0360390000005,429.0360390000005,429.136117,429.8205840999999,right,1,0.7692469999983587,None,,,,,,,,,B68,002,2023-10-19_10h27.14.450,stroopv1,2023.2.3,59.97005095671101,2023-10-19 10h27.22.195343 +0900,
green,green,down,1,,,,,12,6,114,4,429.83674000000065,,,,,,,,,,,,,,,,,,,,,,,,,,,,,,,,,,429.82473930000015,429.83674000000065,429.83674000000065,429.83674000000065,429.83674000000065,429.93680700000004,430.7046405000001,down,1,0.8645122999987507,None,,,,,,,,,B68,002,2023-10-19_10h27.14.450,stroopv1,2023.2.3,59.97005095671101,2023-10-19 10h27.22.195343 +0900,
green,blue,right,0,,,,,12,7,115,5,430.7208702000007,,,,,,,,,,,,,,,,,,,,,,,,,,,,,,,,,,430.7088383999999,430.7208702000007,430.7208702000007,430.7208702000007,430.7208702000007,430.8209555000012,431.7222161000009,right,1,0.9880262999995466,None,,,,,,,,,B68,002,2023-10-19_10h27.14.450,stroopv1,2023.2.3,59.97005095671101,2023-10-19 10h27.22.195343 +0900,
red,red,left,1,,,,,12,8,116,0,431.73851600000125,,,,,,,,,,,,,,,,,,,,,,,,,,,,,,,,,,431.72763080000004,431.73851600000125,431.73851600000125,431.73851600000125,431.73851600000125,431.8385649000011,432.3392754000015,left,1,0.5942822999986674,None,,,,,,,,,B68,002,2023-10-19_10h27.14.450,stroopv1,2023.2.3,59.97005095671101,2023-10-19 10h27.22.195343 +0900,
red,red,left,1,,,,,13,0,117,0,432.3556655000011,,,,,,,,,,,,,,,,,,,,,,,,,,,,,,,,,,432.34310170000026,432.3556655000011,432.3556655000011,432.3556655000011,432.3556655000011,432.45574230000057,432.8563886000011,left,1,0.48941889999878185,None,,,,,,,,,B68,002,2023-10-19_10h27.14.450,stroopv1,2023.2.3,59.97005095671101,2023-10-19 10h27.22.195343 +0900,
red,blue,right,0,,,,,13,1,118,2,432.87275620000037,,,,,,,,,,,,,,,,,,,,,,,,,,,,,,,,,,432.86019900000065,432.87275620000037,432.87275620000037,432.87275620000037,432.87275620000037,432.9728769000012,434.090834300001,right,1,1.2042122000002564,None,,,,,,,,,B68,002,2023-10-19_10h27.14.450,stroopv1,2023.2.3,59.97005095671101,2023-10-19 10h27.22.195343 +0900,
green,blue,right,0,,,,,13,2,119,5,434.1072058000009,,,,,,,,,,,,,,,,,,,,,,,,,,,,,,,,,,434.09469979999994,434.1072058000009,434.1072058000009,434.1072058000009,434.1072058000009,434.20731590000105,435.05841390000023,right,1,0.9455004999999801,None,,,,,,,,,B68,002,2023-10-19_10h27.14.450,stroopv1,2023.2.3,59.97005095671101,2023-10-19 10h27.22.195343 +0900,
blue,red,left,0,,,,,13,3,120,6,435.07476529999985,,,,,,,,,,,,,,,,,,,,,,,,,,,,,,,,,,435.062352500001,435.07476529999985,435.07476529999985,435.07476529999985,435.07476529999985,435.1748166000016,436.12614510000094,down,0,1.0503516000007949,None,,,,,,,,,B68,002,2023-10-19_10h27.14.450,stroopv1,2023.2.3,59.97005095671101,2023-10-19 10h27.22.195343 +0900,
red,green,down,0,,,,,13,4,121,1,436.1423711000007,,,,,,,,,,,,,,,,,,,,,,,,,,,,,,,,,,436.1299764000014,436.1423711000007,436.1423711000007,436.1423711000007,436.1423711000007,436.2424734000015,439.2456164000014,down,1,3.0863573000006,None,,,,,,,,,B68,002,2023-10-19_10h27.14.450,stroopv1,2023.2.3,59.97005095671101,2023-10-19 10h27.22.195343 +0900,
green,green,down,1,,,,,13,5,122,4,439.26180900000145,,,,,,,,,,,,,,,,,,,,,,,,,,,,,,,,,,439.2494841000007,439.26180900000145,439.26180900000145,439.26180900000145,439.26180900000145,439.3619320000016,440.04623260000153,down,1,0.7832538999991812,None,,,,,,,,,B68,002,2023-10-19_10h27.14.450,stroopv1,2023.2.3,59.97005095671101,2023-10-19 10h27.22.195343 +0900,
green,red,left,0,,,,,13,6,123,3,440.0625312000011,,,,,,,,,,,,,,,,,,,,,,,,,,,,,,,,,,440.050095300001,440.0625312000011,440.0625312000011,440.0625312000011,440.0625312000011,440.1626419000004,441.6643875000009,left,1,1.5990722999995342,None,,,,,,,,,B68,002,2023-10-19_10h27.14.450,stroopv1,2023.2.3,59.97005095671101,2023-10-19 10h27.22.195343 +0900,
blue,green,down,0,,,,,13,7,124,7,441.6806368000016,,,,,,,,,,,,,,,,,,,,,,,,,,,,,,,,,,441.66820220000045,441.6806368000016,441.6806368000016,441.6806368000016,441.6806368000016,441.78076000000146,442.4149494000012,down,1,0.7324717999999848,None,,,,,,,,,B68,002,2023-10-19_10h27.14.450,stroopv1,2023.2.3,59.97005095671101,2023-10-19 10h27.22.195343 +0900,
blue,blue,right,1,,,,,13,8,125,8,442.43133410000155,,,,,,,,,,,,,,,,,,,,,,,,,,,,,,,,,,442.41868200000135,442.43133410000155,442.43133410000155,442.43133410000155,442.43133410000155,442.5314283000007,443.0490021000005,right,1,0.6056914999990113,None,,,,,,,,,B68,002,2023-10-19_10h27.14.450,stroopv1,2023.2.3,59.97005095671101,2023-10-19 10h27.22.195343 +0900,
blue,red,left,0,,,,,14,0,126,6,443.06521220000104,,,,,,,,,,,,,,,,,,,,,,,,,,,,,,,,,,443.05279490000066,443.06521220000104,443.06521220000104,443.06521220000104,443.06521220000104,443.16532689999985,443.94995220000055,left,1,0.8837543999998161,None,,,,,,,,,B68,002,2023-10-19_10h27.14.450,stroopv1,2023.2.3,59.97005095671101,2023-10-19 10h27.22.195343 +0900,
red,blue,right,0,,,,,14,1,127,2,443.96598220000124,,,,,,,,,,,,,,,,,,,,,,,,,,,,,,,,,,443.9537938000012,443.96598220000124,443.96598220000124,443.96598220000124,443.96598220000124,444.0662742000004,445.20093950000046,right,1,1.2308026999999129,None,,,,,,,,,B68,002,2023-10-19_10h27.14.450,stroopv1,2023.2.3,59.97005095671101,2023-10-19 10h27.22.195343 +0900,
red,green,down,0,,,,,14,2,128,1,445.21713009999985,,,,,,,,,,,,,,,,,,,,,,,,,,,,,,,,,,445.20520110000143,445.21713009999985,445.21713009999985,445.21713009999985,445.21713009999985,445.3172529000003,446.368637900001,down,1,1.14774750000106,None,,,,,,,,,B68,002,2023-10-19_10h27.14.450,stroopv1,2023.2.3,59.97005095671101,2023-10-19 10h27.22.195343 +0900,
green,red,left,0,,,,,14,3,129,3,446.38484570000037,,,,,,,,,,,,,,,,,,,,,,,,,,,,,,,,,,446.3725966000002,446.38484570000037,446.38484570000037,446.38484570000037,446.38484570000037,446.48499919999995,447.3195136000013,left,1,0.9239111000006233,None,,,,,,,,,B68,002,2023-10-19_10h27.14.450,stroopv1,2023.2.3,59.97005095671101,2023-10-19 10h27.22.195343 +0900,
green,green,down,1,,,,,14,4,130,4,447.33572600000116,,,,,,,,,,,,,,,,,,,,,,,,,,,,,,,,,,447.3234846000014,447.33572600000116,447.33572600000116,447.33572600000116,447.33572600000116,447.4358159000003,448.3369481999998,down,1,0.9975759999997535,None,,,,,,,,,B68,002,2023-10-19_10h27.14.450,stroopv1,2023.2.3,59.97005095671101,2023-10-19 10h27.22.195343 +0900,
green,blue,right,0,,,,,14,5,131,5,448.3532998999999,,,,,,,,,,,,,,,,,,,,,,,,,,,,,,,,,,448.3407943000002,448.3532998999999,448.3532998999999,448.3532998999999,448.3532998999999,448.453389100001,449.0542501,right,1,0.6996319999998377,None,,,,,,,,,B68,002,2023-10-19_10h27.14.450,stroopv1,2023.2.3,59.97005095671101,2023-10-19 10h27.22.195343 +0900,
blue,green,down,0,,,,,14,6,132,7,449.0706156000015,,,,,,,,,,,,,,,,,,,,,,,,,,,,,,,,,,449.05810830000155,449.0706156000015,449.0706156000015,449.0706156000015,449.0706156000015,449.1706656000006,449.97168200000124,down,1,0.8942616999993334,None,,,,,,,,,B68,002,2023-10-19_10h27.14.450,stroopv1,2023.2.3,59.97005095671101,2023-10-19 10h27.22.195343 +0900,
blue,blue,right,1,,,,,14,7,133,8,449.98806630000036,,,,,,,,,,,,,,,,,,,,,,,,,,,,,,,,,,449.9754161000001,449.98806630000036,449.98806630000036,449.98806630000036,449.98806630000036,450.0881848000008,450.97265960000004,right,1,0.9695346000007703,None,,,,,,,,,B68,002,2023-10-19_10h27.14.450,stroopv1,2023.2.3,59.97005095671101,2023-10-19 10h27.22.195343 +0900,
red,red,left,1,,,,,14,8,134,0,450.98899359999996,,,,,,,,,,,,,,,,,,,,,,,,,,,,,,,,,,450.9768490000006,450.98899359999996,450.98899359999996,450.98899359999996,450.98899359999996,451.08907570000156,451.5230981000004,left,1,0.5277320999994117,None,,,,,,,,,B68,002,2023-10-19_10h27.14.450,stroopv1,2023.2.3,59.97005095671101,2023-10-19 10h27.22.195343 +0900,
green,red,left,0,,,,,15,0,135,3,451.5394720000004,,,,,,,,,,,,,,,,,,,,,,,,,,,,,,,,,,451.5270358000016,451.5394720000004,451.5394720000004,451.5394720000004,451.5394720000004,451.63959720000094,451.9234739000003,left,1,0.377907400001277,None,,,,,,,,,B68,002,2023-10-19_10h27.14.450,stroopv1,2023.2.3,59.97005095671101,2023-10-19 10h27.22.195343 +0900,
red,green,down,0,,,,,15,1,136,1,451.93982940000024,,,,,,,,,,,,,,,,,,,,,,,,,,,,,,,,,,451.92732520000027,451.93982940000024,451.93982940000024,451.93982940000024,451.93982940000024,452.03993530000116,452.89110360000086,down,1,0.9373531000001094,None,,,,,,,,,B68,002,2023-10-19_10h27.14.450,stroopv1,2023.2.3,59.97005095671101,2023-10-19 10h27.22.195343 +0900,
green,green,down,1,,,,,15,2,137,4,452.90752840000096,,,,,,,,,,,,,,,,,,,,,,,,,,,,,,,,,,452.8950311000008,452.90752840000096,452.90752840000096,452.90752840000096,452.90752840000096,453.0074566000003,453.4082911000005,left,0,0.4978779000011855,None,,,,,,,,,B68,002,2023-10-19_10h27.14.450,stroopv1,2023.2.3,59.97005095671101,2023-10-19 10h27.22.195343 +0900,
blue,green,down,0,,,,,15,3,138,7,453.42446910000035,,,,,,,,,,,,,,,,,,,,,,,,,,,,,,,,,,453.41220440000143,453.42446910000035,453.42446910000035,453.42446910000035,453.42446910000035,453.52458670000124,454.45917700000064,down,1,1.0205377000002045,None,,,,,,,,,B68,002,2023-10-19_10h27.14.450,stroopv1,2023.2.3,59.97005095671101,2023-10-19 10h27.22.195343 +0900,
red,blue,right,0,,,,,15,4,139,2,454.47540800000024,,,,,,,,,,,,,,,,,,,,,,,,,,,,,,,,,,454.46316220000153,454.47540800000024,454.47540800000024,454.47540800000024,454.47540800000024,454.5755310000004,455.6268780999999,left,0,1.1373033999989275,None,,,,,,,,,B68,002,2023-10-19_10h27.14.450,stroopv1,2023.2.3,59.97005095671101,2023-10-19 10h27.22.195343 +0900,
green,blue,right,0,,,,,15,5,140,5,455.6431468999999,,,,,,,,,,,,,,,,,,,,,,,,,,,,,,,,,,455.63115110000035,455.6431468999999,455.6431468999999,455.6431468999999,455.6431468999999,455.74324270000034,456.9946888000013,right,1,1.3459542999989935,None,,,,,,,,,B68,002,2023-10-19_10h27.14.450,stroopv1,2023.2.3,59.97005095671101,2023-10-19 10h27.22.195343 +0900,
blue,red,left,0,,,,,15,6,141,6,457.0110444000002,,,,,,,,,,,,,,,,,,,,,,,,,,,,,,,,,,456.99852850000025,457.0110444000002,457.0110444000002,457.0110444000002,457.0110444000002,457.11113040000055,457.6453399000002,left,1,0.6338672999991104,None,,,,,,,,,B68,002,2023-10-19_10h27.14.450,stroopv1,2023.2.3,59.97005095671101,2023-10-19 10h27.22.195343 +0900,
red,red,left,1,,,,,15,7,142,0,457.66159340000013,,,,,,,,,,,,,,,,,,,,,,,,,,,,,,,,,,457.64916860000085,457.66159340000013,457.66159340000013,457.66159340000013,457.66159340000013,457.76171090000025,458.52932670000155,left,1,0.8633700999998837,None,,,,,,,,,B68,002,2023-10-19_10h27.14.450,stroopv1,2023.2.3,59.97005095671101,2023-10-19 10h27.22.195343 +0900,
blue,blue,right,1,,,,,15,8,143,8,458.54574910000156,,,,,,,,,,,,,,,,,,,,,,,,,,,,,,,,,,458.5331618,458.54574910000156,458.54574910000156,458.54574910000156,458.54574910000156,458.64584060000016,459.3300394000016,right,1,0.7795383999982732,None,,,,,,,,,B68,002,2023-10-19_10h27.14.450,stroopv1,2023.2.3,59.97005095671101,2023-10-19 10h27.22.195343 +0900,
blue,red,left,0,,,,,16,0,144,6,459.3464718000014,,,,,,,,,,,,,,,,,,,,,,,,,,,,,,,,,,459.33391050000137,459.3464718000014,459.3464718000014,459.3464718000014,459.3464718000014,459.44653890000154,460.8649490000007,left,1,1.5146810999995068,None,,,,,,,,,B68,002,2023-10-19_10h27.14.450,stroopv1,2023.2.3,59.97005095671101,2023-10-19 10h27.22.195343 +0900,
red,red,left,1,,,,,16,1,145,0,460.8811370000003,,,,,,,,,,,,,,,,,,,,,,,,,,,,,,,,,,460.86883510000007,460.8811370000003,460.8811370000003,460.8811370000003,460.8811370000003,460.9812688000002,461.9492551000003,left,1,1.0524781999993138,None,,,,,,,,,B68,002,2023-10-19_10h27.14.450,stroopv1,2023.2.3,59.97005095671101,2023-10-19 10h27.22.195343 +0900,
green,blue,right,0,,,,,16,2,146,5,461.96547960000134,,,,,,,,,,,,,,,,,,,,,,,,,,,,,,,,,,461.9532420000014,461.96547960000134,461.96547960000134,461.96547960000134,461.96547960000134,462.0655321000013,463.65084620000016,right,1,1.6793657999987772,None,,,,,,,,,B68,002,2023-10-19_10h27.14.450,stroopv1,2023.2.3,59.97005095671101,2023-10-19 10h27.22.195343 +0900,
red,green,down,0,,,,,16,3,147,1,463.66701550000107,,,,,,,,,,,,,,,,,,,,,,,,,,,,,,,,,,463.6546911000005,463.66701550000107,463.66701550000107,463.66701550000107,463.66701550000107,463.76706990000093,464.46798040000067,down,1,0.794137500000943,None,,,,,,,,,B68,002,2023-10-19_10h27.14.450,stroopv1,2023.2.3,59.97005095671101,2023-10-19 10h27.22.195343 +0900,
blue,green,down,0,,,,,16,4,148,7,464.4843868000007,,,,,,,,,,,,,,,,,,,,,,,,,,,,,,,,,,464.47179870000036,464.4843868000007,464.4843868000007,464.4843868000007,464.4843868000007,464.58448000000135,464.93508810000094,down,1,0.4411729999992531,None,,,,,,,,,B68,002,2023-10-19_10h27.14.450,stroopv1,2023.2.3,59.97005095671101,2023-10-19 10h27.22.195343 +0900,
green,green,down,1,,,,,16,5,149,4,464.95144530000107,,,,,,,,,,,,,,,,,,,,,,,,,,,,,,,,,,464.9389585000008,464.95144530000107,464.95144530000107,464.95144530000107,464.95144530000107,465.0515589000006,465.5023015000006,down,1,0.5502152999997634,None,,,,,,,,,B68,002,2023-10-19_10h27.14.450,stroopv1,2023.2.3,59.97005095671101,2023-10-19 10h27.22.195343 +0900,
blue,blue,right,1,,,,,16,6,150,8,465.51862489999985,,,,,,,,,,,,,,,,,,,,,,,,,,,,,,,,,,465.50609670000085,465.51862489999985,465.51862489999985,465.51862489999985,465.51862489999985,465.6187393,466.2696444000012,right,1,0.7504953000006935,None,,,,,,,,,B68,002,2023-10-19_10h27.14.450,stroopv1,2023.2.3,59.97005095671101,2023-10-19 10h27.22.195343 +0900,
red,blue,right,0,,,,,16,7,151,2,466.2859969000001,,,,,,,,,,,,,,,,,,,,,,,,,,,,,,,,,,466.2733775000015,466.2859969000001,466.2859969000001,466.2859969000001,466.2859969000001,466.3860568,466.7033724000012,right,1,0.41562920000069425,None,,,,,,,,,B68,002,2023-10-19_10h27.14.450,stroopv1,2023.2.3,59.97005095671101,2023-10-19 10h27.22.195343 +0900,
green,red,left,0,,,,,16,8,152,3,466.7196836000003,,,,,,,,,,,,,,,,,,,,,,,,,,,,,,,,,,466.70726920000016,466.7196836000003,466.7196836000003,466.7196836000003,466.7196836000003,466.81981799999994,467.3372199000005,left,1,0.6058525000007648,None,,,,,,,,,B68,002,2023-10-19_10h27.14.450,stroopv1,2023.2.3,59.97005095671101,2023-10-19 10h27.22.195343 +0900,
green,blue,right,0,,,,,17,0,153,5,467.35359580000113,,,,,,,,,,,,,,,,,,,,,,,,,,,,,,,,,,467.3411117000014,467.35359580000113,467.35359580000113,467.35359580000113,467.35359580000113,467.45370940000066,468.32147390000137,right,1,0.9636451999995188,None,,,,,,,,,B68,002,2023-10-19_10h27.14.450,stroopv1,2023.2.3,59.97005095671101,2023-10-19 10h27.22.195343 +0900,
red,red,left,1,,,,,17,1,154,0,468.33780040000056,,,,,,,,,,,,,,,,,,,,,,,,,,,,,,,,,,468.325295300001,468.33780040000056,468.33780040000056,468.33780040000056,468.33780040000056,468.43792759999997,469.072303500001,left,1,0.7309118000011949,None,,,,,,,,,B68,002,2023-10-19_10h27.14.450,stroopv1,2023.2.3,59.97005095671101,2023-10-19 10h27.22.195343 +0900,
green,red,left,0,,,,,17,2,155,3,469.0885091,,,,,,,,,,,,,,,,,,,,,,,,,,,,,,,,,,469.0763652000005,469.0885091,469.0885091,469.0885091,469.0885091,469.1885921000012,469.75620640000125,left,1,0.6529515999991418,None,,,,,,,,,B68,002,2023-10-19_10h27.14.450,stroopv1,2023.2.3,59.97005095671101,2023-10-19 10h27.22.195343 +0900,
green,green,down,1,,,,,17,3,156,4,469.7724255000012,,,,,,,,,,,,,,,,,,,,,,,,,,,,,,,,,,469.7601474000003,469.7724255000012,469.7724255000012,469.7724255000012,469.7724255000012,469.87253630000123,470.49016760000086,down,1,0.7045850000013161,None,,,,,,,,,B68,002,2023-10-19_10h27.14.450,stroopv1,2023.2.3,59.97005095671101,2023-10-19 10h27.22.195343 +0900,
blue,red,left,0,,,,,17,4,157,6,470.50644810000085,,,,,,,,,,,,,,,,,,,,,,,,,,,,,,,,,,470.49443729999984,470.50644810000085,470.50644810000085,470.50644810000085,470.50644810000085,470.6065294,471.54113320000033,left,1,1.0270337000001746,None,,,,,,,,,B68,002,2023-10-19_10h27.14.450,stroopv1,2023.2.3,59.97005095671101,2023-10-19 10h27.22.195343 +0900,
blue,blue,right,1,,,,,17,5,158,8,471.5573514000007,,,,,,,,,,,,,,,,,,,,,,,,,,,,,,,,,,471.5451529000002,471.5573514000007,471.5573514000007,471.5573514000007,471.5573514000007,471.65746690000014,472.02484490000097,left,0,0.4555158000002848,None,,,,,,,,,B68,002,2023-10-19_10h27.14.450,stroopv1,2023.2.3,59.97005095671101,2023-10-19 10h27.22.195343 +0900,
red,green,down,0,,,,,17,6,159,1,472.041158,,,,,,,,,,,,,,,,,,,,,,,,,,,,,,,,,,472.0286285000002,472.041158,472.041158,472.041158,472.041158,472.14123110000037,475.0107607000009,down,1,2.963707400000203,None,,,,,,,,,B68,002,2023-10-19_10h27.14.450,stroopv1,2023.2.3,59.97005095671101,2023-10-19 10h27.22.195343 +0900,
blue,green,down,0,,,,,17,7,160,7,475.02711720000116,,,,,,,,,,,,,,,,,,,,,,,,,,,,,,,,,,475.01463140000124,475.02711720000116,475.02711720000116,475.02711720000116,475.02711720000116,475.1272329000003,476.36193679999997,down,1,1.322252899999512,None,,,,,,,,,B68,002,2023-10-19_10h27.14.450,stroopv1,2023.2.3,59.97005095671101,2023-10-19 10h27.22.195343 +0900,
red,blue,right,0,,,,,17,8,161,2,476.3783276000013,,,,,,,,,,,,,,,,,,,,,,,,,,,,,,,,,,476.3657615000011,476.3783276000013,476.3783276000013,476.3783276000013,476.3783276000013,476.47845750000124,478.3472275000004,right,1,1.9545016000010946,None,,,,,,,,,B68,002,2023-10-19_10h27.14.450,stroopv1,2023.2.3,59.97005095671101,2023-10-19 10h27.22.195343 +0900,
blue,green,down,0,,,,,18,0,162,7,478.3634739000008,,,,,,,,,,,,,,,,,,,,,,,,,,,,,,,,,,478.3513576000005,478.3634739000008,478.3634739000008,478.3634739000008,478.3634739000008,478.46352430000115,479.7818057000004,down,1,1.40954370000145,None,,,,,,,,,B68,002,2023-10-19_10h27.14.450,stroopv1,2023.2.3,59.97005095671101,2023-10-19 10h27.22.195343 +0900,
red,red,left,1,,,,,18,1,163,0,479.7980823000016,,,,,,,,,,,,,,,,,,,,,,,,,,,,,,,,,,479.785778200001,479.7980823000016,479.7980823000016,479.7980823000016,479.7980823000016,479.89820110000073,480.4157378,left,1,0.614789600000222,None,,,,,,,,,B68,002,2023-10-19_10h27.14.450,stroopv1,2023.2.3,59.97005095671101,2023-10-19 10h27.22.195343 +0900,
green,blue,right,0,,,,,18,2,164,5,480.4319723000008,,,,,,,,,,,,,,,,,,,,,,,,,,,,,,,,,,480.4195828000011,480.4319723000008,480.4319723000008,480.4319723000008,480.4319723000008,480.53207720000137,482.01757760000146,right,1,1.5812083000000712,None,,,,,,,,,B68,002,2023-10-19_10h27.14.450,stroopv1,2023.2.3,59.97005095671101,2023-10-19 10h27.22.195343 +0900,
green,red,left,0,,,,,18,3,165,3,482.0337263000001,,,,,,,,,,,,,,,,,,,,,,,,,,,,,,,,,,482.02173870000115,482.0337263000001,482.0337263000001,482.0337263000001,482.0337263000001,482.1337457999998,482.6677574000005,left,1,0.6192814000005455,None,,,,,,,,,B68,002,2023-10-19_10h27.14.450,stroopv1,2023.2.3,59.97005095671101,2023-10-19 10h27.22.195343 +0900,
red,blue,right,0,,,,,18,4,166,2,482.68399880000106,,,,,,,,,,,,,,,,,,,,,,,,,,,,,,,,,,482.6716770000003,482.68399880000106,482.68399880000106,482.68399880000106,482.68399880000106,482.78408990000025,483.4516375000003,right,1,0.7533988000013778,None,,,,,,,,,B68,002,2023-10-19_10h27.14.450,stroopv1,2023.2.3,59.97005095671101,2023-10-19 10h27.22.195343 +0900,
green,green,down,1,,,,,18,5,167,4,483.4679945000007,,,,,,,,,,,,,,,,,,,,,,,,,,,,,,,,,,483.45547930000066,483.4679945000007,483.4679945000007,483.4679945000007,483.4679945000007,483.5681312000015,484.11891749999995,down,1,0.6411567000013747,None,,,,,,,,,B68,002,2023-10-19_10h27.14.450,stroopv1,2023.2.3,59.97005095671101,2023-10-19 10h27.22.195343 +0900,
red,green,down,0,,,,,18,6,168,1,484.1352811000015,,,,,,,,,,,,,,,,,,,,,,,,,,,,,,,,,,484.1227661000012,484.1352811000015,484.1352811000015,484.1352811000015,484.1352811000015,484.23540050000156,484.6360261000009,down,1,0.4861572999998316,None,,,,,,,,,B68,002,2023-10-19_10h27.14.450,stroopv1,2023.2.3,59.97005095671101,2023-10-19 10h27.22.195343 +0900,
blue,blue,right,1,,,,,18,7,169,8,484.6524046000013,,,,,,,,,,,,,,,,,,,,,,,,,,,,,,,,,,484.6399001000009,484.6524046000013,484.6524046000013,484.6524046000013,484.6524046000013,484.75251690000005,485.48701560000154,right,1,0.8331429999998363,None,,,,,,,,,B68,002,2023-10-19_10h27.14.450,stroopv1,2023.2.3,59.97005095671101,2023-10-19 10h27.22.195343 +0900,
blue,red,left,0,,,,,18,8,170,6,485.5031916000007,,,,,,,,,,,,,,,,,,,,,,,,,,,,,,,,,,485.49108760000126,485.5031916000007,485.5031916000007,485.5031916000007,485.5031916000007,485.6032715000001,486.23778550000134,left,1,0.7338902999999846,None,,,,,,,,,B68,002,2023-10-19_10h27.14.450,stroopv1,2023.2.3,59.97005095671101,2023-10-19 10h27.22.195343 +0900,
red,blue,right,0,,,,,19,0,171,2,486.2538241000002,,,,,,,,,,,,,,,,,,,,,,,,,,,,,,,,,,486.24183710000034,486.2538241000002,486.2538241000002,486.2538241000002,486.2538241000002,486.35395470000003,487.2385095999998,right,1,0.974924899999678,None,,,,,,,,,B68,002,2023-10-19_10h27.14.450,stroopv1,2023.2.3,59.97005095671101,2023-10-19 10h27.22.195343 +0900,
green,red,left,0,,,,,19,1,172,3,487.2547203000013,,,,,,,,,,,,,,,,,,,,,,,,,,,,,,,,,,487.2425121000015,487.2547203000013,487.2547203000013,487.2547203000013,487.2547203000013,487.35484630000064,487.8557451000015,left,1,0.5989534999989701,None,,,,,,,,,B68,002,2023-10-19_10h27.14.450,stroopv1,2023.2.3,59.97005095671101,2023-10-19 10h27.22.195343 +0900,
blue,red,left,0,,,,,19,2,173,6,487.87193450000086,,,,,,,,,,,,,,,,,,,,,,,,,,,,,,,,,,487.86006310000084,487.87193450000086,487.87193450000086,487.87193450000086,487.87193450000086,487.9720646000005,488.4729709000003,left,1,0.5896935000000667,None,,,,,,,,,B68,002,2023-10-19_10h27.14.450,stroopv1,2023.2.3,59.97005095671101,2023-10-19 10h27.22.195343 +0900,
blue,blue,right,1,,,,,19,3,174,8,488.48916780000036,,,,,,,,,,,,,,,,,,,,,,,,,,,,,,,,,,488.4771243000014,488.48916780000036,488.48916780000036,488.48916780000036,488.48916780000036,488.58928190000006,489.240132500001,right,1,0.739901999999347,None,,,,,,,,,B68,002,2023-10-19_10h27.14.450,stroopv1,2023.2.3,59.97005095671101,2023-10-19 10h27.22.195343 +0900,
red,green,down,0,,,,,19,4,175,1,489.2565383000001,,,,,,,,,,,,,,,,,,,,,,,,,,,,,,,,,,489.2439221000004,489.2565383000001,489.2565383000001,489.2565383000001,489.2565383000001,489.356630100001,489.990865400001,down,1,0.7250295000012557,None,,,,,,,,,B68,002,2023-10-19_10h27.14.450,stroopv1,2023.2.3,59.97005095671101,2023-10-19 10h27.22.195343 +0900,
green,blue,right,0,,,,,19,5,176,5,490.00718400000005,,,,,,,,,,,,,,,,,,,,,,,,,,,,,,,,,,489.994654600001,490.00718400000005,490.00718400000005,490.00718400000005,490.00718400000005,490.1072952000013,491.69240290000016,right,1,1.6696957999993174,None,,,,,,,,,B68,002,2023-10-19_10h27.14.450,stroopv1,2023.2.3,59.97005095671101,2023-10-19 10h27.22.195343 +0900,
red,red,left,1,,,,,19,6,177,0,491.70870000000104,,,,,,,,,,,,,,,,,,,,,,,,,,,,,,,,,,491.6963497000015,491.70870000000104,491.70870000000104,491.70870000000104,491.70870000000104,491.8088155000005,492.29293860000143,left,1,0.5761548999998922,None,,,,,,,,,B68,002,2023-10-19_10h27.14.450,stroopv1,2023.2.3,59.97005095671101,2023-10-19 10h27.22.195343 +0900,
green,green,down,1,,,,,19,7,178,4,492.30924680000135,,,,,,,,,,,,,,,,,,,,,,,,,,,,,,,,,,492.29674650000015,492.30924680000135,492.30924680000135,492.30924680000135,492.30924680000135,492.40936690000126,493.27720469999986,down,1,0.9523389999994833,None,,,,,,,,,B68,002,2023-10-19_10h27.14.450,stroopv1,2023.2.3,59.97005095671101,2023-10-19 10h27.22.195343 +0900,
blue,green,down,0,,,,,19,8,179,7,493.293448800001,,,,,,,,,,,,,,,,,,,,,,,,,,,,,,,,,,493.2812300000005,493.293448800001,493.293448800001,493.293448800001,493.293448800001,493.39356829999997,493.9278187,down,1,0.6239344000005076,None,,,,,,,,,B68,002,2023-10-19_10h27.14.450,stroopv1,2023.2.3,59.97005095671101,2023-10-19 10h27.22.195343 +0900,
red,blue,right,0,,,,,20,0,180,2,493.9440349000015,,,,,,,,,,,,,,,,,,,,,,,,,,,,,,,,,,493.9319125000002,493.9440349000015,493.9440349000015,493.9440349000015,493.9440349000015,494.0441703000015,495.92961410000134,right,1,1.9727373000005173,None,,,,,,,,,B68,002,2023-10-19_10h27.14.450,stroopv1,2023.2.3,59.97005095671101,2023-10-19 10h27.22.195343 +0900,
blue,blue,right,1,,,,,20,1,181,8,495.94582470000023,,,,,,,,,,,,,,,,,,,,,,,,,,,,,,,,,,495.93346420000125,495.94582470000023,495.94582470000023,495.94582470000023,495.94582470000023,496.04594950000137,496.49677580000025,right,1,0.546946399999797,None,,,,,,,,,B68,002,2023-10-19_10h27.14.450,stroopv1,2023.2.3,59.97005095671101,2023-10-19 10h27.22.195343 +0900,
red,red,left,1,,,,,20,2,182,0,496.51304700000037,,,,,,,,,,,,,,,,,,,,,,,,,,,,,,,,,,496.5006129000012,496.51304700000037,496.51304700000037,496.51304700000037,496.51304700000037,496.61312309999994,497.1140094000002,left,1,0.5876948000004631,None,,,,,,,,,B68,002,2023-10-19_10h27.14.450,stroopv1,2023.2.3,59.97005095671101,2023-10-19 10h27.22.195343 +0900,
red,green,down,0,,,,,20,3,183,1,497.1302321000003,,,,,,,,,,,,,,,,,,,,,,,,,,,,,,,,,,497.11823790000017,497.1302321000003,497.1302321000003,497.1302321000003,497.1302321000003,497.23033490000125,497.86453640000036,down,1,0.7229926999989402,None,,,,,,,,,B68,002,2023-10-19_10h27.14.450,stroopv1,2023.2.3,59.97005095671101,2023-10-19 10h27.22.195343 +0900,
green,blue,right,0,,,,,20,4,184,5,497.8808860000008,,,,,,,,,,,,,,,,,,,,,,,,,,,,,,,,,,497.86836720000065,497.8808860000008,497.8808860000008,497.8808860000008,497.8808860000008,497.9810107000012,499.06560060000083,right,1,1.1723246000001382,None,,,,,,,,,B68,002,2023-10-19_10h27.14.450,stroopv1,2023.2.3,59.97005095671101,2023-10-19 10h27.22.195343 +0900,
blue,green,down,0,,,,,20,5,185,7,499.08195700000033,,,,,,,,,,,,,,,,,,,,,,,,,,,,,,,,,,499.0694291,499.08195700000033,499.08195700000033,499.08195700000033,499.08195700000033,499.18208159999995,499.93303580000065,down,1,0.8353686999998899,None,,,,,,,,,B68,002,2023-10-19_10h27.14.450,stroopv1,2023.2.3,59.97005095671101,2023-10-19 10h27.22.195343 +0900,
green,green,down,1,,,,,20,6,186,4,499.94940450000104,,,,,,,,,,,,,,,,,,,,,,,,,,,,,,,,,,499.9368632000005,499.94940450000104,499.94940450000104,499.94940450000104,499.94940450000104,500.0495243000005,500.3502047000002,down,1,0.3994949000007182,None,,,,,,,,,B68,002,2023-10-19_10h27.14.450,stroopv1,2023.2.3,59.97005095671101,2023-10-19 10h27.22.195343 +0900,
green,red,left,0,,,,,20,7,187,3,500.3665764000016,,,,,,,,,,,,,,,,,,,,,,,,,,,,,,,,,,500.3540186000009,500.3665764000016,500.3665764000016,500.3665764000016,500.3665764000016,500.4671249000003,500.93399820000013,left,1,0.5583771999990859,None,,,,,,,,,B68,002,2023-10-19_10h27.14.450,stroopv1,2023.2.3,59.97005095671101,2023-10-19 10h27.22.195343 +0900,
blue,red,left,0,,,,,20,8,188,6,500.95036080000136,,,,,,,,,,,,,,,,,,,,,,,,,,,,,,,,,,500.9377905000001,500.95036080000136,500.95036080000136,500.95036080000136,500.95036080000136,501.0506419000012,501.40117850000024,left,1,0.4390411000003951,None,,,,,,,,,B68,002,2023-10-19_10h27.14.450,stroopv1,2023.2.3,59.97005095671101,2023-10-19 10h27.22.195343 +0900,
red,red,left,1,,,,,21,0,189,0,501.41740910000044,,,,,,,,,,,,,,,,,,,,,,,,,,,,,,,,,,501.4051335000004,501.41740910000044,501.41740910000044,501.41740910000044,501.41740910000044,501.5175016000012,501.80151470000055,left,1,0.3716681999994762,None,,,,,,,,,B68,002,2023-10-19_10h27.14.450,stroopv1,2023.2.3,59.97005095671101,2023-10-19 10h27.22.195343 +0900,
blue,green,down,0,,,,,21,1,190,7,501.8177712000015,,,,,,,,,,,,,,,,,,,,,,,,,,,,,,,,,,501.8056481000003,501.8177712000015,501.8177712000015,501.8177712000015,501.8177712000015,501.91785320000054,504.07026770000084,down,1,2.243694200000391,None,,,,,,,,,B68,002,2023-10-19_10h27.14.450,stroopv1,2023.2.3,59.97005095671101,2023-10-19 10h27.22.195343 +0900,
blue,red,left,0,,,,,21,2,191,6,504.08643630000006,,,,,,,,,,,,,,,,,,,,,,,,,,,,,,,,,,504.07415440000113,504.08643630000006,504.08643630000006,504.08643630000006,504.08643630000006,504.18656060000103,504.70414210000126,right,0,0.6148896999984572,None,,,,,,,,,B68,002,2023-10-19_10h27.14.450,stroopv1,2023.2.3,59.97005095671101,2023-10-19 10h27.22.195343 +0900,
green,red,left,0,,,,,21,3,192,3,504.7203322000005,,,,,,,,,,,,,,,,,,,,,,,,,,,,,,,,,,504.70806690000063,504.7203322000005,504.7203322000005,504.7203322000005,504.7203322000005,504.82045280000057,506.37212929999987,left,1,1.6444307999990997,None,,,,,,,,,B68,002,2023-10-19_10h27.14.450,stroopv1,2023.2.3,59.97005095671101,2023-10-19 10h27.22.195343 +0900,
green,blue,right,0,,,,,21,4,193,5,506.3884984000015,,,,,,,,,,,,,,,,,,,,,,,,,,,,,,,,,,506.3759684000015,506.3884984000015,506.3884984000015,506.3884984000015,506.3884984000015,506.48861150000084,507.22299320000093,right,1,0.8244572000003245,None,,,,,,,,,B68,002,2023-10-19_10h27.14.450,stroopv1,2023.2.3,59.97005095671101,2023-10-19 10h27.22.195343 +0900,
blue,blue,right,1,,,,,21,5,194,8,507.2392551000012,,,,,,,,,,,,,,,,,,,,,,,,,,,,,,,,,,507.2268614000004,507.2392551000012,507.2392551000012,507.2392551000012,507.2392551000012,507.33937010000045,507.82368660000066,right,1,0.5816663999994489,None,,,,,,,,,B68,002,2023-10-19_10h27.14.450,stroopv1,2023.2.3,59.97005095671101,2023-10-19 10h27.22.195343 +0900,
red,green,down,0,,,,,21,6,195,1,507.83979030000046,,,,,,,,,,,,,,,,,,,,,,,,,,,,,,,,,,507.8276123000014,507.83979030000046,507.83979030000046,507.83979030000046,507.83979030000046,507.93991260000075,509.2747663000009,down,1,1.4213700000000244,None,,,,,,,,,B68,002,2023-10-19_10h27.14.450,stroopv1,2023.2.3,59.97005095671101,2023-10-19 10h27.22.195343 +0900,
green,green,down,1,,,,,21,7,196,4,509.29111809999995,,,,,,,,,,,,,,,,,,,,,,,,,,,,,,,,,,509.2785480000002,509.29111809999995,509.29111809999995,509.29111809999995,509.29111809999995,509.3911748999999,510.1089428000014,left,0,0.8022734999995009,None,,,,,,,,,B68,002,2023-10-19_10h27.14.450,stroopv1,2023.2.3,59.97005095671101,2023-10-19 10h27.22.195343 +0900,
red,blue,right,0,,,,,21,8,197,2,510.12516550000146,,,,,,,,,,,,,,,,,,,,,,,,,,,,,,,,,,510.112973700001,510.12516550000146,510.12516550000146,510.12516550000146,510.12516550000146,510.2252849000015,511.3600913999999,right,1,1.231997400000182,None,,,,,,,,,B68,002,2023-10-19_10h27.14.450,stroopv1,2023.2.3,59.97005095671101,2023-10-19 10h27.22.195343 +0900,
blue,red,left,0,,,,,22,0,198,6,511.3762846000009,,,,,,,,,,,,,,,,,,,,,,,,,,,,,,,,,,511.3640806000003,511.3762846000009,511.3762846000009,511.3762846000009,511.3762846000009,511.47640930000125,512.7452331000004,left,1,1.357278800000131,None,,,,,,,,,B68,002,2023-10-19_10h27.14.450,stroopv1,2023.2.3,59.97005095671101,2023-10-19 10h27.22.195343 +0900,
green,red,left,0,,,,,22,1,199,3,512.7608584999998,,,,,,,,,,,,,,,,,,,,,,,,,,,,,,,,,,512.7492337000003,512.7608584999998,512.7608584999998,512.7608584999998,512.7608584999998,512.8609839000001,513.2617612000013,left,1,0.4840135000013106,None,,,,,,,,,B68,002,2023-10-19_10h27.14.450,stroopv1,2023.2.3,59.97005095671101,2023-10-19 10h27.22.195343 +0900,
green,blue,right,0,,,,,22,2,200,5,513.2779847000002,,,,,,,,,,,,,,,,,,,,,,,,,,,,,,,,,,513.2656969,513.2779847000002,513.2779847000002,513.2779847000002,513.2779847000002,513.3781073999999,515.2467697000011,right,1,1.9672511999997369,None,,,,,,,,,B68,002,2023-10-19_10h27.14.450,stroopv1,2023.2.3,59.97005095671101,2023-10-19 10h27.22.195343 +0900,
green,green,down,1,,,,,22,3,201,4,515.2630973000014,,,,,,,,,,,,,,,,,,,,,,,,,,,,,,,,,,515.2505473000001,515.2630973000014,515.2630973000014,515.2630973000014,515.2630973000014,515.3632201,515.8139786000011,down,1,0.5422464000002947,None,,,,,,,,,B68,002,2023-10-19_10h27.14.450,stroopv1,2023.2.3,59.97005095671101,2023-10-19 10h27.22.195343 +0900,
red,red,left,1,,,,,22,4,202,0,515.8303031000014,,,,,,,,,,,,,,,,,,,,,,,,,,,,,,,,,,515.8179187000005,515.8303031000014,515.8303031000014,515.8303031000014,515.8303031000014,515.9303610000006,516.6151998000005,left,1,0.7753057999998418,None,,,,,,,,,B68,002,2023-10-19_10h27.14.450,stroopv1,2023.2.3,59.97005095671101,2023-10-19 10h27.22.195343 +0900,
blue,green,down,0,,,,,22,5,203,7,516.6310431000002,,,,,,,,,,,,,,,,,,,,,,,,,,,,,,,,,,516.6193145000016,516.6310431000002,516.6310431000002,516.6310431000002,516.6310431000002,516.7310715000003,517.4655804000013,down,1,0.8217451999989862,None,,,,,,,,,B68,002,2023-10-19_10h27.14.450,stroopv1,2023.2.3,59.97005095671101,2023-10-19 10h27.22.195343 +0900,
blue,blue,right,1,,,,,22,6,204,8,517.481749300001,,,,,,,,,,,,,,,,,,,,,,,,,,,,,,,,,,517.4694993000012,517.481749300001,517.481749300001,517.481749300001,517.481749300001,517.5819262000005,518.1160927000001,right,1,0.6278892000009364,None,,,,,,,,,B68,002,2023-10-19_10h27.14.450,stroopv1,2023.2.3,59.97005095671101,2023-10-19 10h27.22.195343 +0900,
red,blue,right,0,,,,,22,7,205,2,518.1323663000003,,,,,,,,,,,,,,,,,,,,,,,,,,,,,,,,,,518.1199467000006,518.1323663000003,518.1323663000003,518.1323663000003,518.1323663000003,518.2324788000005,518.7355963999998,right,1,0.5851951000004192,None,,,,,,,,,B68,002,2023-10-19_10h27.14.450,stroopv1,2023.2.3,59.97005095671101,2023-10-19 10h27.22.195343 +0900,
red,green,down,0,,,,,22,8,206,1,518.749641800001,,,,,,,,,,,,,,,,,,,,,,,,,,,,,,,,,,518.7394209000013,518.749641800001,518.749641800001,518.749641800001,518.749641800001,518.8496659000011,519.8677920999999,down,1,1.1031235000009474,None,,,,,,,,,B68,002,2023-10-19_10h27.14.450,stroopv1,2023.2.3,59.97005095671101,2023-10-19 10h27.22.195343 +0900,
red,blue,right,0,,,,,23,0,207,2,519.8839551000001,,,,,,,,,,,,,,,,,,,,,,,,,,,,,,,,,,519.8717021000011,519.8839551000001,519.8839551000001,519.8839551000001,519.8839551000001,519.9840269000015,520.6183095000015,right,1,0.7212937000003876,None,,,,,,,,,B68,002,2023-10-19_10h27.14.450,stroopv1,2023.2.3,59.97005095671101,2023-10-19 10h27.22.195343 +0900,
red,red,left,1,,,,,23,1,208,0,520.6346031000012,,,,,,,,,,,,,,,,,,,,,,,,,,,,,,,,,,520.6221722999999,520.6346031000012,520.6346031000012,520.6346031000012,520.6346031000012,520.7347178,521.2687827000009,left,1,0.6264556000005541,None,,,,,,,,,B68,002,2023-10-19_10h27.14.450,stroopv1,2023.2.3,59.97005095671101,2023-10-19 10h27.22.195343 +0900,
green,green,down,1,,,,,23,2,209,4,521.2851760000012,,,,,,,,,,,,,,,,,,,,,,,,,,,,,,,,,,521.2726358,521.2851760000012,521.2851760000012,521.2851760000012,521.2851760000012,521.3853076000014,522.453327700001,down,1,1.1599191000004794,None,,,,,,,,,B68,002,2023-10-19_10h27.14.450,stroopv1,2023.2.3,59.97005095671101,2023-10-19 10h27.22.195343 +0900,
blue,green,down,0,,,,,23,3,210,7,522.4695995000002,,,,,,,,,,,,,,,,,,,,,,,,,,,,,,,,,,522.4576312000008,522.4695995000002,522.4695995000002,522.4695995000002,522.4695995000002,522.5696475000004,522.9204275000011,down,1,0.43994170000041777,None,,,,,,,,,B68,002,2023-10-19_10h27.14.450,stroopv1,2023.2.3,59.97005095671101,2023-10-19 10h27.22.195343 +0900,
blue,red,left,0,,,,,23,4,211,6,522.9366507000013,,,,,,,,,,,,,,,,,,,,,,,,,,,,,,,,,,522.9242872000013,522.9366507000013,522.9366507000013,522.9366507000013,522.9366507000013,523.0367817000006,523.7878221999999,left,1,0.837003900000127,None,,,,,,,,,B68,002,2023-10-19_10h27.14.450,stroopv1,2023.2.3,59.97005095671101,2023-10-19 10h27.22.195343 +0900,
green,red,left,0,,,,,23,5,212,3,523.8041249000016,,,,,,,,,,,,,,,,,,,,,,,,,,,,,,,,,,523.792113200001,523.8041249000016,523.8041249000016,523.8041249000016,523.8041249000016,523.9042189000011,524.4051421000004,left,1,0.5934440999990329,None,,,,,,,,,B68,002,2023-10-19_10h27.14.450,stroopv1,2023.2.3,59.97005095671101,2023-10-19 10h27.22.195343 +0900,
green,blue,right,0,,,,,23,6,213,5,524.4212994000009,,,,,,,,,,,,,,,,,,,,,,,,,,,,,,,,,,524.4092364000007,524.4212994000009,524.4212994000009,524.4212994000009,524.4212994000009,524.521435300001,526.2399446,right,1,1.8161076000014873,None,,,,,,,,,B68,002,2023-10-19_10h27.14.450,stroopv1,2023.2.3,59.97005095671101,2023-10-19 10h27.22.195343 +0900,
blue,blue,right,1,,,,,23,7,214,8,526.2562611000012,,,,,,,,,,,,,,,,,,,,,,,,,,,,,,,,,,526.2438577000012,526.2562611000012,526.2562611000012,526.2562611000012,526.2562611000012,526.3565153,526.9571971000005,right,1,0.6848062999997637,None,,,,,,,,,B68,002,2023-10-19_10h27.14.450,stroopv1,2023.2.3,59.97005095671101,2023-10-19 10h27.22.195343 +0900,
red,green,down,0,,,,,23,8,215,1,526.9735716000014,,,,,,,,,,,,,,,,,,,,,,,,,,,,,,,,,,526.9610583000012,526.9735716000014,526.9735716000014,526.9735716000014,526.9735716000014,527.0736938999999,528.1917177000014,down,1,1.215398100001039,None,,,,,,,,,B68,002,2023-10-19_10h27.14.450,stroopv1,2023.2.3,59.97005095671101,2023-10-19 10h27.22.195343 +0900,
green,red,left,0,,,,,24,0,216,3,528.2080999000009,,,,,,,,,,,,,,,,,,,,,,,,,,,,,,,,,,528.1955531000003,528.2080999000009,528.2080999000009,528.2080999000009,528.2080999000009,528.3081112,529.659722800001,left,1,1.4370436999997764,None,,,,,,,,,B68,002,2023-10-19_10h27.14.450,stroopv1,2023.2.3,59.97005095671101,2023-10-19 10h27.22.195343 +0900,
blue,red,left,0,,,,,24,1,217,6,529.6760095999998,,,,,,,,,,,,,,,,,,,,,,,,,,,,,,,,,,529.6635373000008,529.6760095999998,529.6760095999998,529.6760095999998,529.6760095999998,529.7761320999998,530.9943620000013,left,1,1.313615099999879,None,,,,,,,,,B68,002,2023-10-19_10h27.14.450,stroopv1,2023.2.3,59.97005095671101,2023-10-19 10h27.22.195343 +0900,
blue,green,down,0,,,,,24,2,218,7,531.0105098000004,,,,,,,,,,,,,,,,,,,,,,,,,,,,,,,,,,530.9983126000006,531.0105098000004,531.0105098000004,531.0105098000004,531.0105098000004,531.1106608000009,532.2120917000011,down,1,1.1950445999991643,None,,,,,,,,,B68,002,2023-10-19_10h27.14.450,stroopv1,2023.2.3,59.97005095671101,2023-10-19 10h27.22.195343 +0900,
green,blue,right,0,,,,,24,3,219,5,532.2284834000002,,,,,,,,,,,,,,,,,,,,,,,,,,,,,,,,,,532.2159232000013,532.2284834000002,532.2284834000002,532.2284834000002,532.2284834000002,532.3284088,533.3130660000006,right,1,1.0803828999996767,None,,,,,,,,,B68,002,2023-10-19_10h27.14.450,stroopv1,2023.2.3,59.97005095671101,2023-10-19 10h27.22.195343 +0900,
green,green,down,1,,,,,24,4,220,4,533.3292493000008,,,,,,,,,,,,,,,,,,,,,,,,,,,,,,,,,,533.3173990000014,533.3292493000008,533.3292493000008,533.3292493000008,533.3292493000008,533.4294065000013,535.6651467000011,down,1,2.331792299999506,None,,,,,,,,,B68,002,2023-10-19_10h27.14.450,stroopv1,2023.2.3,59.97005095671101,2023-10-19 10h27.22.195343 +0900,
red,red,left,1,,,,,24,5,221,0,535.6814076999999,,,,,,,,,,,,,,,,,,,,,,,,,,,,,,,,,,535.6694651000016,535.6814076999999,535.6814076999999,535.6814076999999,535.6814076999999,535.7815199000015,536.6159937000011,left,1,0.9234577000006539,None,,,,,,,,,B68,002,2023-10-19_10h27.14.450,stroopv1,2023.2.3,59.97005095671101,2023-10-19 10h27.22.195343 +0900,
red,blue,right,0,,,,,24,6,222,2,536.6322358000016,,,,,,,,,,,,,,,,,,,,,,,,,,,,,,,,,,536.6199118000004,536.6322358000016,536.6322358000016,536.6322358000016,536.6322358000016,536.7323156000002,537.8506276000007,right,1,1.2054785000000265,None,,,,,,,,,B68,002,2023-10-19_10h27.14.450,stroopv1,2023.2.3,59.97005095671101,2023-10-19 10h27.22.195343 +0900,
blue,blue,right,1,,,,,24,7,223,8,537.8667924000001,,,,,,,,,,,,,,,,,,,,,,,,,,,,,,,,,,537.8544367000013,537.8667924000001,537.8667924000001,537.8667924000001,537.8667924000001,537.9670897000015,538.4177273000005,right,1,0.5460050000001502,None,,,,,,,,,B68,002,2023-10-19_10h27.14.450,stroopv1,2023.2.3,59.97005095671101,2023-10-19 10h27.22.195343 +0900,
red,green,down,0,,,,,24,8,224,1,538.4338788000005,,,,,,,,,,,,,,,,,,,,,,,,,,,,,,,,,,538.4215379000016,538.4338788000005,538.4338788000005,538.4338788000005,538.4338788000005,538.5341718,539.6353214999999,down,1,1.1958582000006572,None,,,,,,,,,B68,002,2023-10-19_10h27.14.450,stroopv1,2023.2.3,59.97005095671101,2023-10-19 10h27.22.195343 +0900,
green,green,down,1,,,,,25,0,225,4,539.6516004000005,,,,,,,,,,,,,,,,,,,,,,,,,,,,,,,,,,539.6390640999998,539.6516004000005,539.6516004000005,539.6516004000005,539.6516004000005,539.7517200000002,540.3026049,left,0,0.6500095999999758,None,,,,,,,,,B68,002,2023-10-19_10h27.14.450,stroopv1,2023.2.3,59.97005095671101,2023-10-19 10h27.22.195343 +0900,
blue,red,left,0,,,,,25,1,226,6,540.3188637000003,,,,,,,,,,,,,,,,,,,,,,,,,,,,,,,,,,540.3065322000002,540.3188637000003,540.3188637000003,540.3188637000003,540.3188637000003,540.4189776000003,541.920792500001,left,1,1.5983582999997452,None,,,,,,,,,B68,002,2023-10-19_10h27.14.450,stroopv1,2023.2.3,59.97005095671101,2023-10-19 10h27.22.195343 +0900,
green,blue,right,0,,,,,25,2,227,5,541.9369756000015,,,,,,,,,,,,,,,,,,,,,,,,,,,,,,,,,,541.9248631999999,541.9369756000015,541.9369756000015,541.9369756000015,541.9369756000015,542.0370966999999,542.9549137000013,right,1,1.0038045000001148,None,,,,,,,,,B68,002,2023-10-19_10h27.14.450,stroopv1,2023.2.3,59.97005095671101,2023-10-19 10h27.22.195343 +0900,
red,blue,right,0,,,,,25,3,228,2,542.9712369000008,,,,,,,,,,,,,,,,,,,,,,,,,,,,,,,,,,542.9587236000007,542.9712369000008,542.9712369000008,542.9712369000008,542.9712369000008,543.0713570000007,543.4221015000003,right,1,0.43497349999961443,None,,,,,,,,,B68,002,2023-10-19_10h27.14.450,stroopv1,2023.2.3,59.97005095671101,2023-10-19 10h27.22.195343 +0900,
red,red,left,1,,,,,25,4,229,0,543.4383151000002,,,,,,,,,,,,,,,,,,,,,,,,,,,,,,,,,,543.4260461000013,543.4383151000002,543.4383151000002,543.4383151000002,543.4383151000002,543.5384316,544.1892725000016,left,1,0.7353630999987217,None,,,,,,,,,B68,002,2023-10-19_10h27.14.450,stroopv1,2023.2.3,59.97005095671101,2023-10-19 10h27.22.195343 +0900,
green,red,left,0,,,,,25,5,230,3,544.2056317000006,,,,,,,,,,,,,,,,,,,,,,,,,,,,,,,,,,544.1931521000006,544.2056317000006,544.2056317000006,544.2056317000006,544.2056317000006,544.3057744000016,544.6898326999999,left,1,0.4793952999989415,None,,,,,,,,,B68,002,2023-10-19_10h27.14.450,stroopv1,2023.2.3,59.97005095671101,2023-10-19 10h27.22.195343 +0900,
blue,blue,right,1,,,,,25,6,231,8,544.7060840000013,,,,,,,,,,,,,,,,,,,,,,,,,,,,,,,,,,544.693725000001,544.7060840000013,544.7060840000013,544.7060840000013,544.7060840000013,544.8062170000012,545.7073498999998,right,1,0.9875682000001689,None,,,,,,,,,B68,002,2023-10-19_10h27.14.450,stroopv1,2023.2.3,59.97005095671101,2023-10-19 10h27.22.195343 +0900,
red,green,down,0,,,,,25,7,232,1,545.7237671000003,,,,,,,,,,,,,,,,,,,,,,,,,,,,,,,,,,545.7111826,545.7237671000003,545.7237671000003,545.7237671000003,545.7237671000003,545.8238090000013,546.3912956000004,down,1,0.657570700001088,None,,,,,,,,,B68,002,2023-10-19_10h27.14.450,stroopv1,2023.2.3,59.97005095671101,2023-10-19 10h27.22.195343 +0900,
blue,green,down,0,,,,,25,8,233,7,546.4076089000009,,,,,,,,,,,,,,,,,,,,,,,,,,,,,,,,,,546.3951039000003,546.4076089000009,546.4076089000009,546.4076089000009,546.4076089000009,546.507749800001,547.0086609999998,down,1,0.5976439000005485,None,,,,,,,,,B68,002,2023-10-19_10h27.14.450,stroopv1,2023.2.3,59.97005095671101,2023-10-19 10h27.22.195343 +0900,
blue,green,down,0,,,,,26,0,234,7,547.0248378000015,,,,,,,,,,,,,,,,,,,,,,,,,,,,,,,,,,547.0127745999998,547.0248378000015,547.0248378000015,547.0248378000015,547.0248378000015,547.1249846999999,547.8593942000007,down,1,0.8285908999987441,None,,,,,,,,,B68,002,2023-10-19_10h27.14.450,stroopv1,2023.2.3,59.97005095671101,2023-10-19 10h27.22.195343 +0900,
red,green,down,0,,,,,26,1,235,1,547.875612400001,,,,,,,,,,,,,,,,,,,,,,,,,,,,,,,,,,547.8632237000002,547.875612400001,547.875612400001,547.875612400001,547.875612400001,547.9757343000001,548.610101100001,down,1,0.7292896000017208,None,,,,,,,,,B68,002,2023-10-19_10h27.14.450,stroopv1,2023.2.3,59.97005095671101,2023-10-19 10h27.22.195343 +0900,
red,red,left,1,,,,,26,2,236,0,548.6262885000015,,,,,,,,,,,,,,,,,,,,,,,,,,,,,,,,,,548.6139180000009,548.6262885000015,548.6262885000015,548.6262885000015,548.6262885000015,548.7263687000013,549.2438359000007,left,1,0.6025598000014725,None,,,,,,,,,B68,002,2023-10-19_10h27.14.450,stroopv1,2023.2.3,59.97005095671101,2023-10-19 10h27.22.195343 +0900,
green,green,down,1,,,,,26,3,237,4,549.2601907000007,,,,,,,,,,,,,,,,,,,,,,,,,,,,,,,,,,549.2476544000001,549.2601907000007,549.2601907000007,549.2601907000007,549.2601907000007,549.3602439000006,550.2282184000014,down,1,0.9612606999999116,None,,,,,,,,,B68,002,2023-10-19_10h27.14.450,stroopv1,2023.2.3,59.97005095671101,2023-10-19 10h27.22.195343 +0900,
green,red,left,0,,,,,26,4,238,3,550.2443961000008,,,,,,,,,,,,,,,,,,,,,,,,,,,,,,,,,,550.2320071000013,550.2443961000008,550.2443961000008,550.2443961000008,550.2443961000008,550.3445128000003,550.9620963000016,left,1,0.7126308999995672,None,,,,,,,,,B68,002,2023-10-19_10h27.14.450,stroopv1,2023.2.3,59.97005095671101,2023-10-19 10h27.22.195343 +0900,
blue,red,left,0,,,,,26,5,239,6,550.9783952000016,,,,,,,,,,,,,,,,,,,,,,,,,,,,,,,,,,550.9658952000009,550.9783952000016,550.9783952000016,550.9783952000016,550.9783952000016,551.0784752,551.9629428000007,left,1,0.971275500000047,None,,,,,,,,,B68,002,2023-10-19_10h27.14.450,stroopv1,2023.2.3,59.97005095671101,2023-10-19 10h27.22.195343 +0900,
blue,blue,right,1,,,,,26,6,240,8,551.9793237000013,,,,,,,,,,,,,,,,,,,,,,,,,,,,,,,,,,551.9667335000013,551.9793237000013,551.9793237000013,551.9793237000013,551.9793237000013,552.0793761000004,552.8470946000016,right,1,0.8663505000004079,None,,,,,,,,,B68,002,2023-10-19_10h27.14.450,stroopv1,2023.2.3,59.97005095671101,2023-10-19 10h27.22.195343 +0900,
red,blue,right,0,,,,,26,7,241,2,552.8634137000008,,,,,,,,,,,,,,,,,,,,,,,,,,,,,,,,,,552.8509279000009,552.8634137000008,552.8634137000008,552.8634137000008,552.8634137000008,552.9635315000014,553.5643704000013,right,1,0.6859084999996412,None,,,,,,,,,B68,002,2023-10-19_10h27.14.450,stroopv1,2023.2.3,59.97005095671101,2023-10-19 10h27.22.195343 +0900,
green,blue,right,0,,,,,26,8,242,5,553.5807502000007,,,,,,,,,,,,,,,,,,,,,,,,,,,,,,,,,,553.5682007000014,553.5807502000007,553.5807502000007,553.5807502000007,553.5807502000007,553.6808367000012,554.081529000001,right,1,0.49680330000046524,None,,,,,,,,,B68,002,2023-10-19_10h27.14.450,stroopv1,2023.2.3,59.97005095671101,2023-10-19 10h27.22.195343 +0900,
red,green,down,0,,,,,27,0,243,1,554.0978748000016,,,,,,,,,,,,,,,,,,,,,,,,,,,,,,,,,,554.085368600001,554.0978748000016,554.0978748000016,554.0978748000016,554.0978748000016,554.1979388,554.9824357000016,down,1,0.8756849999990663,None,,,,,,,,,B68,002,2023-10-19_10h27.14.450,stroopv1,2023.2.3,59.97005095671101,2023-10-19 10h27.22.195343 +0900,
green,green,down,1,,,,,27,1,244,4,554.9986781000007,,,,,,,,,,,,,,,,,,,,,,,,,,,,,,,,,,554.986307000001,554.9986781000007,554.9986781000007,554.9986781000007,554.9986781000007,555.0987607000006,555.5829162999999,down,1,0.5830351000004157,None,,,,,,,,,B68,002,2023-10-19_10h27.14.450,stroopv1,2023.2.3,59.97005095671101,2023-10-19 10h27.22.195343 +0900,
red,red,left,1,,,,,27,2,245,0,555.5992201000008,,,,,,,,,,,,,,,,,,,,,,,,,,,,,,,,,,555.5867413000014,555.5992201000008,555.5992201000008,555.5992201000008,555.5992201000008,555.6992789000014,556.1833529000014,left,1,0.5745103000008385,None,,,,,,,,,B68,002,2023-10-19_10h27.14.450,stroopv1,2023.2.3,59.97005095671101,2023-10-19 10h27.22.195343 +0900,
blue,blue,right,1,,,,,27,3,246,8,556.1997222999998,,,,,,,,,,,,,,,,,,,,,,,,,,,,,,,,,,556.1872926000015,556.1997222999998,556.1997222999998,556.1997222999998,556.1997222999998,556.2998519000012,556.9011482000005,right,1,0.693565800000215,None,,,,,,,,,B68,002,2023-10-19_10h27.14.450,stroopv1,2023.2.3,59.97005095671101,2023-10-19 10h27.22.195343 +0900,
blue,red,left,0,,,,,27,4,247,6,556.9174905,,,,,,,,,,,,,,,,,,,,,,,,,,,,,,,,,,556.9049728999998,556.9174905,556.9174905,556.9174905,556.9174905,557.0176041000013,557.8515193000003,left,1,0.9196472000003268,None,,,,,,,,,B68,002,2023-10-19_10h27.14.450,stroopv1,2023.2.3,59.97005095671101,2023-10-19 10h27.22.195343 +0900,
green,blue,right,0,,,,,27,5,248,5,557.8678485,,,,,,,,,,,,,,,,,,,,,,,,,,,,,,,,,,557.8553225000014,557.8678485,557.8678485,557.8678485,557.8678485,557.9679997000003,558.686059900001,right,1,0.8174813999994512,None,,,,,,,,,B68,002,2023-10-19_10h27.14.450,stroopv1,2023.2.3,59.97005095671101,2023-10-19 10h27.22.195343 +0900,
red,blue,right,0,,,,,27,6,249,2,558.7019297000006,,,,,,,,,,,,,,,,,,,,,,,,,,,,,,,,,,558.6900457000011,558.7019297000006,558.7019297000006,558.7019297000006,558.7019297000006,558.8020825000003,559.5030130000014,right,1,0.7996720999999525,None,,,,,,,,,B68,002,2023-10-19_10h27.14.450,stroopv1,2023.2.3,59.97005095671101,2023-10-19 10h27.22.195343 +0900,
green,red,left,0,,,,,27,7,250,3,559.519394500001,,,,,,,,,,,,,,,,,,,,,,,,,,,,,,,,,,559.5068179999998,559.519394500001,559.519394500001,559.519394500001,559.519394500001,559.6194695000013,560.1202171000004,left,1,0.5902183999987756,None,,,,,,,,,B68,002,2023-10-19_10h27.14.450,stroopv1,2023.2.3,59.97005095671101,2023-10-19 10h27.22.195343 +0900,
blue,green,down,0,,,,,27,8,251,7,560.1366462000005,,,,,,,,,,,,,,,,,,,,,,,,,,,,,,,,,,560.1241019000008,560.1366462000005,560.1366462000005,560.1366462000005,560.1366462000005,560.2366706000012,560.8208521000015,down,1,0.6766060999998444,None,,,,,,,,,B68,002,2023-10-19_10h27.14.450,stroopv1,2023.2.3,59.97005095671101,2023-10-19 10h27.22.195343 +0900,
blue,blue,right,1,,,,,28,0,252,8,560.8372087000007,,,,,,,,,,,,,,,,,,,,,,,,,,,,,,,,,,560.8246641000005,560.8372087000007,560.8372087000007,560.8372087000007,560.8372087000007,560.9372899000009,561.2879205000008,down,0,0.4404893999999331,None,,,,,,,,,B68,002,2023-10-19_10h27.14.450,stroopv1,2023.2.3,59.97005095671101,2023-10-19 10h27.22.195343 +0900,
red,green,down,0,,,,,28,1,253,1,561.3042631000008,,,,,,,,,,,,,,,,,,,,,,,,,,,,,,,,,,561.2917573000013,561.3042631000008,561.3042631000008,561.3042631000008,561.3042631000008,561.4044354000016,564.7412119,down,1,3.428880699999354,None,,,,,,,,,B68,002,2023-10-19_10h27.14.450,stroopv1,2023.2.3,59.97005095671101,2023-10-19 10h27.22.195343 +0900,
green,green,down,1,,,,,28,2,254,4,564.757375000001,,,,,,,,,,,,,,,,,,,,,,,,,,,,,,,,,,564.7455340000015,564.757375000001,564.757375000001,564.757375000001,564.757375000001,564.8575034000005,565.3250220000009,down,1,0.5518538999986049,None,,,,,,,,,B68,002,2023-10-19_10h27.14.450,stroopv1,2023.2.3,59.97005095671101,2023-10-19 10h27.22.195343 +0900,
green,red,left,0,,,,,28,3,255,3,565.3412298000003,,,,,,,,,,,,,,,,,,,,,,,,,,,,,,,,,,565.3288960999998,565.3412298000003,565.3412298000003,565.3412298000003,565.3412298000003,565.441329700001,567.2601106000002,left,1,1.903570700000273,None,,,,,,,,,B68,002,2023-10-19_10h27.14.450,stroopv1,2023.2.3,59.97005095671101,2023-10-19 10h27.22.195343 +0900,
green,blue,right,0,,,,,28,4,256,5,567.2762938000014,,,,,,,,,,,,,,,,,,,,,,,,,,,,,,,,,,567.2642394000013,567.2762938000014,567.2762938000014,567.2762938000014,567.2762938000014,567.3764100000008,567.9939086000013,right,1,0.7050300000009884,None,,,,,,,,,B68,002,2023-10-19_10h27.14.450,stroopv1,2023.2.3,59.97005095671101,2023-10-19 10h27.22.195343 +0900,
blue,green,down,0,,,,,28,5,257,7,568.0103044000007,,,,,,,,,,,,,,,,,,,,,,,,,,,,,,,,,,567.9976772999999,568.0103044000007,568.0103044000007,568.0103044000007,568.0103044000007,568.1104083999999,569.645391600001,down,1,1.618499399999564,None,,,,,,,,,B68,002,2023-10-19_10h27.14.450,stroopv1,2023.2.3,59.97005095671101,2023-10-19 10h27.22.195343 +0900,
blue,red,left,0,,,,,28,6,258,6,569.6617272000003,,,,,,,,,,,,,,,,,,,,,,,,,,,,,,,,,,569.6492954000005,569.6617272000003,569.6617272000003,569.6617272000003,569.6617272000003,569.7618789000007,570.8465335000001,left,1,1.1840036000012333,None,,,,,,,,,B68,002,2023-10-19_10h27.14.450,stroopv1,2023.2.3,59.97005095671101,2023-10-19 10h27.22.195343 +0900,
red,red,left,1,,,,,28,7,259,0,570.8628081000006,,,,,,,,,,,,,,,,,,,,,,,,,,,,,,,,,,570.8503380000002,570.8628081000006,570.8628081000006,570.8628081000006,570.8628081000006,570.9629301000004,571.4638407000002,left,1,0.5908890000009706,None,,,,,,,,,B68,002,2023-10-19_10h27.14.450,stroopv1,2023.2.3,59.97005095671101,2023-10-19 10h27.22.195343 +0900,
red,blue,right,0,,,,,28,8,260,2,571.4800237,,,,,,,,,,,,,,,,,,,,,,,,,,,,,,,,,,571.4682067000012,571.4800237,571.4800237,571.4800237,571.4800237,571.5801741000014,572.6149204000012,right,1,1.1248298999998951,None,,,,,,,,,B68,002,2023-10-19_10h27.14.450,stroopv1,2023.2.3,59.97005095671101,2023-10-19 10h27.22.195343 +0900,
red,red,left,1,,,,,29,0,261,0,572.6311131000002,,,,,,,,,,,,,,,,,,,,,,,,,,,,,,,,,,572.6192942000016,572.6311131000002,572.6311131000002,572.6311131000002,572.6311131000002,572.7311789000014,573.2488806000001,left,1,0.614590600000156,None,,,,,,,,,B68,002,2023-10-19_10h27.14.450,stroopv1,2023.2.3,59.97005095671101,2023-10-19 10h27.22.195343 +0900,
blue,blue,right,1,,,,,29,1,262,8,573.2649820000006,,,,,,,,,,,,,,,,,,,,,,,,,,,,,,,,,,573.2532826000006,573.2649820000006,573.2649820000006,573.2649820000006,573.2649820000006,573.3651120000013,574.1664153000002,right,1,0.8926738999998634,None,,,,,,,,,B68,002,2023-10-19_10h27.14.450,stroopv1,2023.2.3,59.97005095671101,2023-10-19 10h27.22.195343 +0900,
red,green,down,0,,,,,29,2,263,1,574.1824684000003,,,,,,,,,,,,,,,,,,,,,,,,,,,,,,,,,,574.1704123,574.1824684000003,574.1824684000003,574.1824684000003,574.1824684000003,574.2825905999998,574.9002584000009,down,1,0.710732999999891,None,,,,,,,,,B68,002,2023-10-19_10h27.14.450,stroopv1,2023.2.3,59.97005095671101,2023-10-19 10h27.22.195343 +0900,
blue,green,down,0,,,,,29,3,264,7,574.9164615999998,,,,,,,,,,,,,,,,,,,,,,,,,,,,,,,,,,574.904563,574.9164615999998,574.9164615999998,574.9164615999998,574.9164615999998,575.0165565000007,575.4507310000008,down,1,0.5209156999990228,None,,,,,,,,,B68,002,2023-10-19_10h27.14.450,stroopv1,2023.2.3,59.97005095671101,2023-10-19 10h27.22.195343 +0900,
green,red,left,0,,,,,29,4,265,3,575.4671231000011,,,,,,,,,,,,,,,,,,,,,,,,,,,,,,,,,,575.4545524000005,575.4671231000011,575.4671231000011,575.4671231000011,575.4671231000011,575.5675862000007,576.3180526000015,left,1,0.834364899999855,None,,,,,,,,,B68,002,2023-10-19_10h27.14.450,stroopv1,2023.2.3,59.97005095671101,2023-10-19 10h27.22.195343 +0900,
green,green,down,1,,,,,29,5,266,4,576.3344308000014,,,,,,,,,,,,,,,,,,,,,,,,,,,,,,,,,,576.3218190000007,576.3344308000014,576.3344308000014,576.3344308000014,576.3344308000014,576.4345071000007,578.2030551000007,down,1,1.8547521000000415,None,,,,,,,,,B68,002,2023-10-19_10h27.14.450,stroopv1,2023.2.3,59.97005095671101,2023-10-19 10h27.22.195343 +0900,
red,blue,right,0,,,,,29,6,267,2,578.2193824000005,,,,,,,,,,,,,,,,,,,,,,,,,,,,,,,,,,578.2068257999999,578.2193824000005,578.2193824000005,578.2193824000005,578.2193824000005,578.3195381000005,579.2873516,right,1,1.0581533000004129,None,,,,,,,,,B68,002,2023-10-19_10h27.14.450,stroopv1,2023.2.3,59.97005095671101,2023-10-19 10h27.22.195343 +0900,
green,blue,right,0,,,,,29,7,268,5,579.3037179000003,,,,,,,,,,,,,,,,,,,,,,,,,,,,,,,,,,579.2911918000009,579.3037179000003,579.3037179000003,579.3037179000003,579.3037179000003,579.4038831000016,579.8379862000002,right,1,0.5179864000001544,None,,,,,,,,,B68,002,2023-10-19_10h27.14.450,stroopv1,2023.2.3,59.97005095671101,2023-10-19 10h27.22.195343 +0900,
blue,red,left,0,,,,,29,8,269,6,579.8542023999998,,,,,,,,,,,,,,,,,,,,,,,,,,,,,,,,,,579.8421618000011,579.8542023999998,579.8542023999998,579.8542023999998,579.8542023999998,579.9543235000001,581.0891273000016,left,1,1.2312880999998015,None,,,,,,,,,B68,002,2023-10-19_10h27.14.450,stroopv1,2023.2.3,59.97005095671101,2023-10-19 10h27.22.195343 +0900,
red,blue,right,0,,,,,30,0,270,2,581.1053226000004,,,,,,,,,,,,,,,,,,,,,,,,,,,,,,,,,,581.0931365000015,581.1053226000004,581.1053226000004,581.1053226000004,581.1053226000004,581.2054169000003,582.556915000001,down,0,1.435913299999811,None,,,,,,,,,B68,002,2023-10-19_10h27.14.450,stroopv1,2023.2.3,59.97005095671101,2023-10-19 10h27.22.195343 +0900,
red,red,left,1,,,,,30,1,271,0,582.5732707000006,,,,,,,,,,,,,,,,,,,,,,,,,,,,,,,,,,582.5607138000014,582.5732707000006,582.5732707000006,582.5732707000006,582.5732707000006,582.6733978000011,583.4078749,left,1,0.8317919000000984,None,,,,,,,,,B68,002,2023-10-19_10h27.14.450,stroopv1,2023.2.3,59.97005095671101,2023-10-19 10h27.22.195343 +0900,
green,blue,right,0,,,,,30,2,272,5,583.4240315000006,,,,,,,,,,,,,,,,,,,,,,,,,,,,,,,,,,583.4117804000016,583.4240315000006,583.4240315000006,583.4240315000006,583.4240315000006,583.5241501,584.2585076000014,down,0,0.8291962999992393,None,,,,,,,,,B68,002,2023-10-19_10h27.14.450,stroopv1,2023.2.3,59.97005095671101,2023-10-19 10h27.22.195343 +0900,
